Folder: 2024-09-QuCO2-NCE/data/02-SI/Figures_S9_S11_RDE/14btmapaq-rde (part 11)

File: 1mkcl--5mmolar14btmapaq-nitrogen-rde-1200-50mvpers.DTA
EXPLAIN
TAG	LSV
TITLE	LABEL	Linear Sweep Voltammetry	Test &Identifier
DATE	LABEL	1/31/2023	Date
TIME	LABEL	13:11:54	Time
NOTES	NOTES	1	&Notes...

PSTAT	PSTAT	REF3000-21108	Potentiostat
VINIT	POTEN	3.00000E-001	F	&Initial E (V)
VFINAL	POTEN	-1.00000E+000	F	&Final E (V)
SCANRATE	QUANT	4.99999E+001	&Scan Rate (mV/s)
STEPSIZE	QUANT	1.00000E-001	St&ep Size (mV)
IMODE	SELECTOR	0	I/E Range &Mode
IRANGE	QUANT	1.00000E+002	&Max Current (mA)
AREA	QUANT	1.00000E+000	Electrode &Area (cm^2)
ELECTRODETYPE	SELECTOR	0	Electrode Type
STRIPPING	TOGGLE	F	Used for Stripping
POLARITY	TOGGLE	F	Signal Polarity
CONDIT	TWOPARAM	F	1.50000E+001	0.00000E+000	Conditionin&g	Time(s)	E(V)
DELAY	TWOPARAM	F	3.00000E+001	0.00000E+000	Init. De&lay	Time(s)	Stab.(mV/s)
EQDELAY	QUANT	0.00000E+000	Equil. &Time (s)
IRCOMP	SELECTOR	0	IRCom&p
PFCOR	QUANT	5.00000E+001	PF Corr. (ohm)
SAMPLINGMODE	SELECTOR	1	Sampling &Mode
EOC	QUANT	0	Open Circuit (V)
PSTATMODEL	IQUANT	5	Pstat Model
PSTATSECTION	LABEL	REF3000-21108	Pstat Section
PSTATSERIALNO	LABEL	21108	Pstat Serial Number
CTRLMODE	IQUANT	1	Control Mode
ELECTROMETER	IQUANT	0	RE=0 or CS=1
IESTAB	IQUANT	2	I/E Stability
CASPEED	IQUANT	4	Control Amp Speed
CONVENTION	IQUANT	1	Current Convention
ICHRANGE	IQUANT	2	Ich Range
ICHRANGEMODE	TOGGLE	F	Ich Auto Range
ICHOFFSETENABLE	TOGGLE	F	Ich Offset Enable
ICHOFFSET	QUANT	0	Ich Offset (V)
ICHFILTER	IQUANT	2	Ich Filter
VCHRANGE	IQUANT	2	Vch Range
VCHRANGEMODE	TOGGLE	T	Vch Auto Range
VCHOFFSETENABLE	TOGGLE	F	Vch Offset Enable
VCHOFFSET	QUANT	0	Vch Offset (V)
VCHFILTER	IQUANT	2	Vch Filter
ACHRANGE	IQUANT	2	Ach Range
ACHOFFSETENABLE	TOGGLE	F	Ach Offset Enable
ACHOFFSET	QUANT	0	Ach Offset (V)
ACHFILTER	IQUANT	0	Ach Filter
IERANGELOWERLIMIT	IQUANT	2	I/E Range Lower Limit
IERANGEMODE	TOGGLE	T	I/E AutoRange
IERANGE	IQUANT	11	I/E Range
POSFEEDENABLE	TOGGLE	F	Positive Feedback IR Comp
POSFEEDRESISTANCE	QUANT	0	Positive Feedback Resistance (ohm)
ACHSELECT	IQUANT	0	Ach Select
SENSECABLEID	IQUANT	14	Sense Cable ID
PWRCABLEID	IQUANT	7	Power Cable ID
DCCALDATE	LABEL	11/9/2022	DC Calibration Date
ACCALDATE	LABEL	11/9/2022	AC Calibration Date
THERMOSELECT	IQUANT	1	Thermo Select
FRAMEWORKVERSION	LABEL	7.8.2	Framework Version
INSTRUMENTVERSION	LABEL	4.40	Instrument Version
COMPLIANCEVOLTAGE	IQUANT	0	Compliance Voltage
CURVE	TABLE	13001
	Pt	T	Vf	Im	Vu	Sig	Ach	IERange	Over	Cycle	Temp
	#	s	V vs. Ref.	A	V	V	V	#	bits	#	deg C
	0	0.002	2.99763E-001	-4.04689E-005	0.00000E+000	3.00000E-001	-8.54272E-004	11	..........a	0	-327.74
	137	0.276	2.85135E-001	5.61109E-006	0.00000E+000	2.86300E-001	-8.29272E-004	8	..........a	0	-327.74
	274	0.55	2.71506E-001	3.70666E-006	0.00000E+000	2.72600E-001	-8.29272E-004	8	..........a	0	-327.74
	411	0.824	2.57731E-001	3.55417E-006	0.00000E+000	2.58900E-001	-8.29272E-004	8	..........a	0	-327.74
	548	1.098	2.44110E-001	2.55259E-006	0.00000E+000	2.45200E-001	-8.54272E-004	8	..........a	0	-327.74
	685	1.372	2.30297E-001	2.30594E-006	0.00000E+000	2.31500E-001	-8.29272E-004	8	..........a	0	-327.74
	822	1.646	2.16599E-001	1.60350E-006	0.00000E+000	2.17800E-001	-8.12605E-004	8	..........a	0	-327.74
	959	1.92	2.02903E-001	1.20895E-006	0.00000E+000	2.04100E-001	-8.70939E-004	8	..........a	0	-327.74
	1096	2.194	1.89198E-001	7.85647E-007	0.00000E+000	1.90400E-001	-8.20939E-004	8	..........a	0	-327.74
	1233	2.468	1.75518E-001	5.56915E-007	0.00000E+000	1.76700E-001	-8.54272E-004	8	..........a	0	-327.74
	1370	2.742	1.61823E-001	1.29450E-007	0.00000E+000	1.63000E-001	-8.54272E-004	8	..........a	0	-327.74
	1507	3.016	1.48128E-001	4.07760E-007	0.00000E+000	1.49300E-001	-7.87605E-004	8	..........a	0	-327.74
	1644	3.29	1.34450E-001	2.76521E-007	0.00000E+000	1.35600E-001	-8.04272E-004	8	..........a	0	-327.74
	1781	3.564	1.20726E-001	-1.14281E-007	0.00000E+000	1.21900E-001	-8.95939E-004	8	..........a	0	-327.74
	1918	3.838	1.07038E-001	3.23740E-008	0.00000E+000	1.08200E-001	-8.37606E-004	8	..........a	0	-327.74
	2055	4.112	9.33543E-002	-1.13725E-008	0.00000E+000	9.45000E-002	-7.95939E-004	8	..........a	0	-327.74
	2192	4.386	7.96601E-002	-5.84521E-008	0.00000E+000	8.08000E-002	-8.12605E-004	8	..........a	0	-327.74
	2329	4.66	6.59656E-002	-4.10507E-007	0.00000E+000	6.71000E-002	-8.12605E-004	8	..........a	0	-327.74
	2466	4.934	5.22743E-002	-3.48845E-007	0.00000E+000	5.34000E-002	-8.45939E-004	8	..........a	0	-327.74
	2603	5.208	3.85772E-002	-5.21332E-007	0.00000E+000	3.97000E-002	-8.12605E-004	8	..........a	0	-327.74
	2740	5.482	2.49060E-002	8.15367E-008	0.00000E+000	2.60000E-002	-7.87605E-004	8	..........a	0	-327.74
	2877	5.756	1.11867E-002	-3.28014E-007	0.00000E+000	1.23000E-002	-8.37606E-004	8	..........a	0	-327.74
	3014	6.03	-2.49823E-003	-3.83009E-007	0.00000E+000	-1.40002E-003	-8.04272E-004	8	..........a	0	-327.74
	3151	6.304	-1.61901E-002	-4.81335E-007	0.00000E+000	-1.51000E-002	-8.45939E-004	8	..........a	0	-327.74
	3288	6.578	-2.98849E-002	-6.37290E-009	0.00000E+000	-2.88000E-002	-8.12605E-004	8	..........a	0	-327.74
	3425	6.852	-4.35953E-002	-1.00254E-006	0.00000E+000	-4.25000E-002	-8.12605E-004	8	..........a	0	-327.74
	3562	7.126	-5.72769E-002	-5.15915E-007	0.00000E+000	-5.62000E-002	-7.54272E-004	8	..........a	0	-327.74
	3699	7.4	-7.09586E-002	-5.51329E-007	0.00000E+000	-6.99000E-002	-8.04272E-004	8	..........a	0	-327.74
	3836	7.674	-8.46674E-002	-7.75061E-007	0.00000E+000	-8.36000E-002	-8.12605E-004	8	..........a	0	-327.74
	3973	7.948	-9.83440E-002	-5.32581E-007	0.00000E+000	-9.73000E-002	-8.37606E-004	8	..........a	0	-327.74
	4110	8.222	-1.12040E-001	-6.89235E-007	0.00000E+000	-1.11000E-001	-7.62605E-004	8	..........a	0	-327.74
	4247	8.496	-1.25719E-001	-5.67578E-007	0.00000E+000	-1.24700E-001	-8.20939E-004	8	..........a	0	-327.74
	4384	8.77	-1.39442E-001	-6.02992E-007	0.00000E+000	-1.38400E-001	-7.70939E-004	8	..........a	0	-327.74
	4521	9.044	-1.53124E-001	-7.20899E-007	0.00000E+000	-1.52100E-001	-7.62605E-004	8	..........a	0	-327.74
	4658	9.318	-1.66812E-001	-8.84219E-007	0.00000E+000	-1.65800E-001	-8.20939E-004	8	..........a	0	-327.74
	4795	9.592	-1.80504E-001	-9.40881E-007	0.00000E+000	-1.79500E-001	-7.70939E-004	8	..........a	0	-327.74
	4932	9.866	-1.94210E-001	-1.20378E-006	0.00000E+000	-1.93200E-001	-8.37606E-004	8	..........a	0	-327.74
	5069	10.14	-2.07907E-001	-1.74248E-006	0.00000E+000	-2.06900E-001	-8.04272E-004	8	..........a	0	-327.74
	5206	10.414	-2.21596E-001	-1.71290E-006	0.00000E+000	-2.20600E-001	-8.79272E-004	8	..........a	0	-327.74
	5343	10.688	-2.35301E-001	-1.82914E-006	0.00000E+000	-2.34300E-001	-8.29272E-004	8	..........a	0	-327.74
	5480	10.962	-2.48981E-001	-2.39201E-006	0.00000E+000	-2.48000E-001	-8.45939E-004	8	..........a	0	-327.74
	5617	11.236	-2.62673E-001	-1.75998E-006	0.00000E+000	-2.61700E-001	-8.20939E-004	8	..........a	0	-327.74
	5754	11.51	-2.76328E-001	-2.46784E-006	0.00000E+000	-2.75400E-001	-8.20939E-004	8	..........a	0	-327.74
	5891	11.784	-2.90036E-001	-2.61658E-006	0.00000E+000	-2.89100E-001	-8.37606E-004	8	..........a	0	-327.74
	6028	12.058	-3.03698E-001	-2.46326E-006	0.00000E+000	-3.02800E-001	-8.70939E-004	8	..........a	0	-327.74
	6165	12.332	-3.17382E-001	-3.00988E-006	0.00000E+000	-3.16500E-001	-7.79272E-004	8	..........a	0	-327.74
	6302	12.606	-3.31169E-001	-3.73607E-006	0.00000E+000	-3.30200E-001	-7.79272E-004	8	..........a	0	-327.74
[...]
	8494	16.99	-5.50108E-001	-3.96855E-004	0.00000E+000	-5.49400E-001	-8.04272E-004	9	..........a	0	-327.74
	8631	17.264	-5.63808E-001	-4.50856E-004	0.00000E+000	-5.63100E-001	-8.04272E-004	9	..........a	0	-327.74
	8768	17.538	-5.77529E-001	-4.89330E-004	0.00000E+000	-5.76800E-001	-8.37606E-004	9	..........a	0	-327.74
	8905	17.812	-5.91200E-001	-5.11886E-004	0.00000E+000	-5.90500E-001	-8.62605E-004	9	..........a	0	-327.74
	9042	18.086	-6.04912E-001	-5.25471E-004	0.00000E+000	-6.04200E-001	-7.79272E-004	9	..........a	0	-327.74
	9179	18.36	-6.18575E-001	-5.37489E-004	0.00000E+000	-6.17900E-001	-7.95939E-004	9	..........a	0	-327.74
	9316	18.634	-6.32304E-001	-5.40268E-004	0.00000E+000	-6.31600E-001	-7.95939E-004	9	..........a	0	-327.74
	9453	18.908	-6.45954E-001	-5.45345E-004	0.00000E+000	-6.45300E-001	-8.20939E-004	9	..........a	0	-327.74
	9590	19.182	-6.59612E-001	-5.48145E-004	0.00000E+000	-6.59000E-001	-8.70939E-004	9	..........a	0	-327.74
	9727	19.456	-6.73417E-001	-5.48562E-004	0.00000E+000	-6.72700E-001	-8.04272E-004	9	..........a	0	-327.74
	9864	19.73	-6.87029E-001	-5.47288E-004	0.00000E+000	-6.86400E-001	-8.20939E-004	9	..........a	0	-327.74
	10001	20.004	-7.00758E-001	-5.51350E-004	0.00000E+000	-7.00100E-001	-8.37606E-004	9	..........a	0	-327.74
	10138	20.278	-7.14450E-001	-5.52006E-004	0.00000E+000	-7.13800E-001	-8.37606E-004	9	..........a	0	-327.74
	10275	20.552	-7.28221E-001	-5.54626E-004	0.00000E+000	-7.27500E-001	-8.12605E-004	9	..........a	0	-327.74
	10412	20.826	-7.41846E-001	-5.49971E-004	0.00000E+000	-7.41200E-001	-8.37606E-004	9	..........a	0	-327.74
	10549	21.1	-7.55550E-001	-5.52557E-004	0.00000E+000	-7.54900E-001	-8.12605E-004	9	..........a	0	-327.74
	10686	21.374	-7.69242E-001	-5.53004E-004	0.00000E+000	-7.68600E-001	-8.29272E-004	9	..........a	0	-327.74
	10823	21.648	-7.82917E-001	-5.53009E-004	0.00000E+000	-7.82300E-001	-8.54272E-004	9	..........a	0	-327.74
	10960	21.922	-7.96637E-001	-5.51040E-004	0.00000E+000	-7.96000E-001	-8.29272E-004	9	..........a	0	-327.74
	11097	22.196	-8.10300E-001	-5.52850E-004	0.00000E+000	-8.09700E-001	-7.70939E-004	9	..........a	0	-327.74
	11234	22.47	-8.23962E-001	-5.50698E-004	0.00000E+000	-8.23400E-001	-8.12605E-004	9	..........a	0	-327.74
	11371	22.744	-8.37642E-001	-5.56001E-004	0.00000E+000	-8.37100E-001	-7.95939E-004	9	..........a	0	-327.74
	11508	23.018	-8.51383E-001	-5.55048E-004	0.00000E+000	-8.50800E-001	-8.37606E-004	9	..........a	0	-327.74
	11645	23.292	-8.65042E-001	-5.56740E-004	0.00000E+000	-8.64500E-001	-8.62605E-004	9	..........a	0	-327.74
	11782	23.566	-8.78746E-001	-5.53080E-004	0.00000E+000	-8.78200E-001	-8.04272E-004	9	..........a	0	-327.74
	11919	23.84	-8.92437E-001	-5.52390E-004	0.00000E+000	-8.91900E-001	-8.12605E-004	9	..........a	0	-327.74
	12056	24.114	-9.06112E-001	-5.54020E-004	0.00000E+000	-9.05600E-001	-8.37606E-004	9	..........a	0	-327.74
	12193	24.388	-9.19867E-001	-5.54655E-004	0.00000E+000	-9.19300E-001	-7.95939E-004	9	..........a	0	-327.74
	12330	24.662	-9.33425E-001	-5.52570E-004	0.00000E+000	-9.33000E-001	-7.95939E-004	9	..........a	0	-327.74
	12467	24.936	-9.47208E-001	-5.56088E-004	0.00000E+000	-9.46700E-001	-7.95939E-004	9	..........a	0	-327.74
	12604	25.21	-9.60900E-001	-5.55340E-004	0.00000E+000	-9.60400E-001	-8.29272E-004	9	..........a	0	-327.74
	12741	25.484	-9.74625E-001	-5.55549E-004	0.00000E+000	-9.74100E-001	-8.37606E-004	9	..........a	0	-327.74
	12878	25.758	-9.88337E-001	-5.54617E-004	0.00000E+000	-9.87800E-001	-8.12605E-004	9	..........a	0	-327.74
	13000	26.002	-1.00048E+000	-5.57977E-004	0.00000E+000	-1.00000E+000	-7.95939E-004	9	..........a	0	-327.74

File: 1mkcl--5mmolar14btmapaq-nitrogen-rde-1600-50mvpers.DTA
EXPLAIN
TAG	LSV
TITLE	LABEL	Linear Sweep Voltammetry	Test &Identifier
DATE	LABEL	1/31/2023	Date
TIME	LABEL	13:13:05	Time
NOTES	NOTES	1	&Notes...

PSTAT	PSTAT	REF3000-21108	Potentiostat
VINIT	POTEN	3.00000E-001	F	&Initial E (V)
VFINAL	POTEN	-1.00000E+000	F	&Final E (V)
SCANRATE	QUANT	4.99999E+001	&Scan Rate (mV/s)
STEPSIZE	QUANT	1.00000E-001	St&ep Size (mV)
IMODE	SELECTOR	0	I/E Range &Mode
IRANGE	QUANT	1.00000E+002	&Max Current (mA)
AREA	QUANT	1.00000E+000	Electrode &Area (cm^2)
ELECTRODETYPE	SELECTOR	0	Electrode Type
STRIPPING	TOGGLE	F	Used for Stripping
POLARITY	TOGGLE	F	Signal Polarity
CONDIT	TWOPARAM	F	1.50000E+001	0.00000E+000	Conditionin&g	Time(s)	E(V)
DELAY	TWOPARAM	F	3.00000E+001	0.00000E+000	Init. De&lay	Time(s)	Stab.(mV/s)
EQDELAY	QUANT	0.00000E+000	Equil. &Time (s)
IRCOMP	SELECTOR	0	IRCom&p
PFCOR	QUANT	5.00000E+001	PF Corr. (ohm)
SAMPLINGMODE	SELECTOR	1	Sampling &Mode
EOC	QUANT	0	Open Circuit (V)
PSTATMODEL	IQUANT	5	Pstat Model
PSTATSECTION	LABEL	REF3000-21108	Pstat Section
PSTATSERIALNO	LABEL	21108	Pstat Serial Number
CTRLMODE	IQUANT	1	Control Mode
ELECTROMETER	IQUANT	0	RE=0 or CS=1
IESTAB	IQUANT	2	I/E Stability
CASPEED	IQUANT	4	Control Amp Speed
CONVENTION	IQUANT	1	Current Convention
ICHRANGE	IQUANT	2	Ich Range
ICHRANGEMODE	TOGGLE	F	Ich Auto Range
ICHOFFSETENABLE	TOGGLE	F	Ich Offset Enable
ICHOFFSET	QUANT	0	Ich Offset (V)
ICHFILTER	IQUANT	2	Ich Filter
VCHRANGE	IQUANT	2	Vch Range
VCHRANGEMODE	TOGGLE	T	Vch Auto Range
VCHOFFSETENABLE	TOGGLE	F	Vch Offset Enable
VCHOFFSET	QUANT	0	Vch Offset (V)
VCHFILTER	IQUANT	2	Vch Filter
ACHRANGE	IQUANT	2	Ach Range
ACHOFFSETENABLE	TOGGLE	F	Ach Offset Enable
ACHOFFSET	QUANT	0	Ach Offset (V)
ACHFILTER	IQUANT	0	Ach Filter
IERANGELOWERLIMIT	IQUANT	2	I/E Range Lower Limit
IERANGEMODE	TOGGLE	T	I/E AutoRange
IERANGE	IQUANT	11	I/E Range
POSFEEDENABLE	TOGGLE	F	Positive Feedback IR Comp
POSFEEDRESISTANCE	QUANT	0	Positive Feedback Resistance (ohm)
ACHSELECT	IQUANT	0	Ach Select
SENSECABLEID	IQUANT	14	Sense Cable ID
PWRCABLEID	IQUANT	7	Power Cable ID
DCCALDATE	LABEL	11/9/2022	DC Calibration Date
ACCALDATE	LABEL	11/9/2022	AC Calibration Date
THERMOSELECT	IQUANT	1	Thermo Select
FRAMEWORKVERSION	LABEL	7.8.2	Framework Version
INSTRUMENTVERSION	LABEL	4.40	Instrument Version
COMPLIANCEVOLTAGE	IQUANT	0	Compliance Voltage
CURVE	TABLE	13001
	Pt	T	Vf	Im	Vu	Sig	Ach	IERange	Over	Cycle	Temp
	#	s	V vs. Ref.	A	V	V	V	#	bits	#	deg C
	0	0.002	2.99788E-001	-4.25552E-005	0.00000E+000	3.00000E-001	-7.70939E-004	11	..........a	0	-327.74
	137	0.276	2.85168E-001	5.33778E-006	0.00000E+000	2.86300E-001	-8.37606E-004	8	..........a	0	-327.74
	274	0.55	2.71506E-001	3.77624E-006	0.00000E+000	2.72600E-001	-8.95939E-004	8	..........a	0	-327.74
	411	0.824	2.57718E-001	2.78840E-006	0.00000E+000	2.58900E-001	-9.20939E-004	8	..........a	0	-327.74
	548	1.098	2.44131E-001	1.98513E-006	0.00000E+000	2.45200E-001	-8.54272E-004	8	..........a	0	-327.74
	685	1.372	2.30293E-001	1.48017E-006	0.00000E+000	2.31500E-001	-8.45939E-004	8	..........a	0	-327.74
	822	1.646	2.16616E-001	8.97721E-007	0.00000E+000	2.17800E-001	-8.54272E-004	8	..........a	0	-327.74
	959	1.92	2.02895E-001	1.13479E-006	0.00000E+000	2.04100E-001	-8.87605E-004	8	..........a	0	-327.74
	1096	2.194	1.89199E-001	1.56947E-007	0.00000E+000	1.90400E-001	-8.95939E-004	8	..........a	0	-327.74
	1233	2.468	1.75505E-001	3.38599E-007	0.00000E+000	1.76700E-001	-8.37606E-004	8	..........a	0	-327.74
	1370	2.742	1.61815E-001	1.11118E-007	0.00000E+000	1.63000E-001	-8.95939E-004	8	..........a	0	-327.74
	1507	3.016	1.48124E-001	9.82020E-008	0.00000E+000	1.49300E-001	-8.62605E-004	8	..........a	0	-327.74
	1644	3.29	1.34453E-001	1.74446E-007	0.00000E+000	1.35600E-001	-8.62605E-004	8	..........a	0	-327.74
	1781	3.564	1.20737E-001	-5.06333E-007	0.00000E+000	1.21900E-001	-8.37606E-004	8	..........a	0	-327.74
	1918	3.838	1.07065E-001	-7.09511E-008	0.00000E+000	1.08200E-001	-9.20939E-004	8	..........a	0	-327.74
	2055	4.112	9.33493E-002	1.99027E-007	0.00000E+000	9.45000E-002	-8.29272E-004	8	..........a	0	-327.74
	2192	4.386	7.96576E-002	-5.52162E-007	0.00000E+000	8.08000E-002	-8.04272E-004	8	..........a	0	-327.74
	2329	4.66	6.59647E-002	-2.14273E-007	0.00000E+000	6.71000E-002	-8.37606E-004	8	..........a	0	-327.74
	2466	4.934	5.22676E-002	-2.09273E-007	0.00000E+000	5.34000E-002	-8.54272E-004	8	..........a	0	-327.74
	2603	5.208	3.85764E-002	-4.41755E-007	0.00000E+000	3.97000E-002	-8.20939E-004	8	..........a	0	-327.74
	2740	5.482	2.48964E-002	-3.55928E-007	0.00000E+000	2.60000E-002	-8.54272E-004	8	..........a	0	-327.74
	2877	5.756	1.11914E-002	-6.56737E-007	0.00000E+000	1.23000E-002	-8.87605E-004	8	..........a	0	-327.74
	3014	6.03	-2.51011E-003	-2.57186E-007	0.00000E+000	-1.40002E-003	-8.45939E-004	8	..........a	0	-327.74
	3151	6.304	-1.62024E-002	-1.00213E-006	0.00000E+000	-1.51000E-002	-8.62605E-004	8	..........a	0	-327.74
	3288	6.578	-2.98794E-002	-3.15515E-007	0.00000E+000	-2.88000E-002	-8.79272E-004	8	..........a	0	-327.74
	3425	6.852	-4.35769E-002	-2.17189E-007	0.00000E+000	-4.25000E-002	-8.37606E-004	8	..........a	0	-327.74
	3562	7.126	-5.72874E-002	-6.55487E-007	0.00000E+000	-5.62000E-002	-8.37606E-004	8	..........a	0	-327.74
	3699	7.4	-7.09561E-002	-6.15907E-007	0.00000E+000	-6.99000E-002	-8.12605E-004	8	..........a	0	-327.74
	3836	7.674	-8.46561E-002	-9.60880E-007	0.00000E+000	-8.36000E-002	-8.20939E-004	8	..........a	0	-327.74
	3973	7.948	-9.83457E-002	-1.02212E-006	0.00000E+000	-9.73000E-002	-8.37606E-004	8	..........a	0	-327.74
	4110	8.222	-1.12046E-001	-7.49230E-007	0.00000E+000	-1.11000E-001	-8.45939E-004	8	..........a	0	-327.74
	4247	8.496	-1.25736E-001	-9.82961E-007	0.00000E+000	-1.24700E-001	-8.12605E-004	8	..........a	0	-327.74
	4384	8.77	-1.39430E-001	-7.72145E-007	0.00000E+000	-1.38400E-001	-8.29272E-004	8	..........a	0	-327.74
	4521	9.044	-1.53114E-001	-6.97984E-007	0.00000E+000	-1.52100E-001	-8.79272E-004	8	..........a	0	-327.74
	4658	9.318	-1.66819E-001	-1.38460E-006	0.00000E+000	-1.65800E-001	-8.54272E-004	8	..........a	0	-327.74
	4795	9.592	-1.80497E-001	-1.18420E-006	0.00000E+000	-1.79500E-001	-8.45939E-004	8	..........a	0	-327.74
	4932	9.866	-1.94212E-001	-1.86247E-006	0.00000E+000	-1.93200E-001	-8.37606E-004	8	..........a	0	-327.74
	5069	10.14	-2.07896E-001	-2.11745E-006	0.00000E+000	-2.06900E-001	-8.20939E-004	8	..........a	0	-327.74
	5206	10.414	-2.21602E-001	-2.14953E-006	0.00000E+000	-2.20600E-001	-8.37606E-004	8	..........a	0	-327.74
	5343	10.688	-2.35302E-001	-2.48784E-006	0.00000E+000	-2.34300E-001	-8.04272E-004	8	..........a	0	-327.74
	5480	10.962	-2.48969E-001	-2.73490E-006	0.00000E+000	-2.48000E-001	-8.62605E-004	8	..........a	0	-327.74
	5617	11.236	-2.62666E-001	-3.29278E-006	0.00000E+000	-2.61700E-001	-7.87605E-004	8	..........a	0	-327.74
	5754	11.51	-2.76348E-001	-3.38402E-006	0.00000E+000	-2.75400E-001	-8.62605E-004	8	..........a	0	-327.74
	5891	11.784	-2.89986E-001	-3.56150E-006	0.00000E+000	-2.89100E-001	-8.29272E-004	8	..........a	0	-327.74
	6028	12.058	-3.03694E-001	-4.06980E-006	0.00000E+000	-3.02800E-001	-8.29272E-004	8	..........a	0	-327.74
	6165	12.332	-3.17357E-001	-4.45518E-006	0.00000E+000	-3.16500E-001	-8.37606E-004	8	..........a	0	-327.74
	6302	12.606	-3.31153E-001	-5.50635E-006	0.00000E+000	-3.30200E-001	-8.37606E-004	8	..........a	0	-327.74
[...]
	8494	16.99	-5.50154E-001	-4.37848E-004	0.00000E+000	-5.49400E-001	-8.04272E-004	9	..........a	0	-327.74
	8631	17.264	-5.63800E-001	-5.00553E-004	0.00000E+000	-5.63100E-001	-8.54272E-004	9	..........a	0	-327.74
	8768	17.538	-5.77525E-001	-5.51876E-004	0.00000E+000	-5.76800E-001	-8.20939E-004	9	..........a	0	-327.74
	8905	17.812	-5.91150E-001	-5.81244E-004	0.00000E+000	-5.90500E-001	-8.04272E-004	9	..........a	0	-327.74
	9042	18.086	-6.04862E-001	-6.02697E-004	0.00000E+000	-6.04200E-001	-8.62605E-004	9	..........a	0	-327.74
	9179	18.36	-6.18625E-001	-6.13123E-004	0.00000E+000	-6.17900E-001	-8.62605E-004	9	..........a	0	-327.74
	9316	18.634	-6.32279E-001	-6.22141E-004	0.00000E+000	-6.31600E-001	-8.29272E-004	9	..........a	0	-327.74
	9453	18.908	-6.45958E-001	-6.28146E-004	0.00000E+000	-6.45300E-001	-8.37606E-004	9	..........a	0	-327.74
	9590	19.182	-6.59592E-001	-6.31677E-004	0.00000E+000	-6.59000E-001	-8.37606E-004	9	..........a	0	-327.74
	9727	19.456	-6.73371E-001	-6.33866E-004	0.00000E+000	-6.72700E-001	-8.45939E-004	9	..........a	0	-327.74
	9864	19.73	-6.86996E-001	-6.35253E-004	0.00000E+000	-6.86400E-001	-8.62605E-004	9	..........a	0	-327.74
	10001	20.004	-7.00771E-001	-6.35960E-004	0.00000E+000	-7.00100E-001	-9.12605E-004	9	..........a	0	-327.74
	10138	20.278	-7.14421E-001	-6.36846E-004	0.00000E+000	-7.13800E-001	-8.79272E-004	9	..........a	0	-327.74
	10275	20.552	-7.28133E-001	-6.35893E-004	0.00000E+000	-7.27500E-001	-8.79272E-004	9	..........a	0	-327.74
	10412	20.826	-7.41871E-001	-6.37075E-004	0.00000E+000	-7.41200E-001	-8.37606E-004	9	..........a	0	-327.74
	10549	21.1	-7.55525E-001	-6.40790E-004	0.00000E+000	-7.54900E-001	-8.62605E-004	9	..........a	0	-327.74
	10686	21.374	-7.69208E-001	-6.37071E-004	0.00000E+000	-7.68600E-001	-8.37606E-004	9	..........a	0	-327.74
	10823	21.648	-7.82908E-001	-6.37355E-004	0.00000E+000	-7.82300E-001	-8.37606E-004	9	..........a	0	-327.74
	10960	21.922	-7.96608E-001	-6.40552E-004	0.00000E+000	-7.96000E-001	-8.79272E-004	9	..........a	0	-327.74
	11097	22.196	-8.10304E-001	-6.41421E-004	0.00000E+000	-8.09700E-001	-8.62605E-004	9	..........a	0	-327.74
	11234	22.47	-8.23942E-001	-6.39812E-004	0.00000E+000	-8.23400E-001	-8.62605E-004	9	..........a	0	-327.74
	11371	22.744	-8.37650E-001	-6.39077E-004	0.00000E+000	-8.37100E-001	-8.62605E-004	9	..........a	0	-327.74
	11508	23.018	-8.51396E-001	-6.40088E-004	0.00000E+000	-8.50800E-001	-8.20939E-004	9	..........a	0	-327.74
	11645	23.292	-8.65017E-001	-6.39382E-004	0.00000E+000	-8.64500E-001	-8.87605E-004	9	..........a	0	-327.74
	11782	23.566	-8.78767E-001	-6.39215E-004	0.00000E+000	-8.78200E-001	-8.62605E-004	9	..........a	0	-327.74
	11919	23.84	-8.92433E-001	-6.40874E-004	0.00000E+000	-8.91900E-001	-8.04272E-004	9	..........a	0	-327.74
	12056	24.114	-9.06054E-001	-6.40272E-004	0.00000E+000	-9.05600E-001	-9.04272E-004	9	..........a	0	-327.74
	12193	24.388	-9.19850E-001	-6.41910E-004	0.00000E+000	-9.19300E-001	-8.12605E-004	9	..........a	0	-327.74
	12330	24.662	-9.33475E-001	-6.39512E-004	0.00000E+000	-9.33000E-001	-8.37606E-004	9	..........a	0	-327.74
	12467	24.936	-9.47179E-001	-6.37890E-004	0.00000E+000	-9.46700E-001	-8.37606E-004	9	..........a	0	-327.74
	12604	25.21	-9.60858E-001	-6.41283E-004	0.00000E+000	-9.60400E-001	-7.87605E-004	9	..........a	0	-327.74
	12741	25.484	-9.74646E-001	-6.41676E-004	0.00000E+000	-9.74100E-001	-8.62605E-004	9	..........a	0	-327.74
	12878	25.758	-9.88279E-001	-6.38647E-004	0.00000E+000	-9.87800E-001	-8.37606E-004	9	..........a	0	-327.74
	13000	26.002	-1.00045E+000	-6.42466E-004	0.00000E+000	-1.00000E+000	-8.95939E-004	9	..........a	0	-327.74