Folder: 2024-09-QuCO2-NCE/data/02-SI/Figures_S9_S11_RDE/14btmapaq-rde (part 12)

File: 1mkcl--5mmolar14btmapaq-nitrogen-rde-2500-50mvpers.DTA
EXPLAIN
TAG	LSV
TITLE	LABEL	Linear Sweep Voltammetry	Test &Identifier
DATE	LABEL	1/31/2023	Date
TIME	LABEL	13:14:01	Time
NOTES	NOTES	1	&Notes...

PSTAT	PSTAT	REF3000-21108	Potentiostat
VINIT	POTEN	3.00000E-001	F	&Initial E (V)
VFINAL	POTEN	-1.00000E+000	F	&Final E (V)
SCANRATE	QUANT	4.99999E+001	&Scan Rate (mV/s)
STEPSIZE	QUANT	1.00000E-001	St&ep Size (mV)
IMODE	SELECTOR	0	I/E Range &Mode
IRANGE	QUANT	1.00000E+002	&Max Current (mA)
AREA	QUANT	1.00000E+000	Electrode &Area (cm^2)
ELECTRODETYPE	SELECTOR	0	Electrode Type
STRIPPING	TOGGLE	F	Used for Stripping
POLARITY	TOGGLE	F	Signal Polarity
CONDIT	TWOPARAM	F	1.50000E+001	0.00000E+000	Conditionin&g	Time(s)	E(V)
DELAY	TWOPARAM	F	3.00000E+001	0.00000E+000	Init. De&lay	Time(s)	Stab.(mV/s)
EQDELAY	QUANT	0.00000E+000	Equil. &Time (s)
IRCOMP	SELECTOR	0	IRCom&p
PFCOR	QUANT	5.00000E+001	PF Corr. (ohm)
SAMPLINGMODE	SELECTOR	1	Sampling &Mode
EOC	QUANT	0	Open Circuit (V)
PSTATMODEL	IQUANT	5	Pstat Model
PSTATSECTION	LABEL	REF3000-21108	Pstat Section
PSTATSERIALNO	LABEL	21108	Pstat Serial Number
CTRLMODE	IQUANT	1	Control Mode
ELECTROMETER	IQUANT	0	RE=0 or CS=1
IESTAB	IQUANT	2	I/E Stability
CASPEED	IQUANT	4	Control Amp Speed
CONVENTION	IQUANT	1	Current Convention
ICHRANGE	IQUANT	2	Ich Range
ICHRANGEMODE	TOGGLE	F	Ich Auto Range
ICHOFFSETENABLE	TOGGLE	F	Ich Offset Enable
ICHOFFSET	QUANT	0	Ich Offset (V)
ICHFILTER	IQUANT	2	Ich Filter
VCHRANGE	IQUANT	2	Vch Range
VCHRANGEMODE	TOGGLE	T	Vch Auto Range
VCHOFFSETENABLE	TOGGLE	F	Vch Offset Enable
VCHOFFSET	QUANT	0	Vch Offset (V)
VCHFILTER	IQUANT	2	Vch Filter
ACHRANGE	IQUANT	2	Ach Range
ACHOFFSETENABLE	TOGGLE	F	Ach Offset Enable
ACHOFFSET	QUANT	0	Ach Offset (V)
ACHFILTER	IQUANT	0	Ach Filter
IERANGELOWERLIMIT	IQUANT	2	I/E Range Lower Limit
IERANGEMODE	TOGGLE	T	I/E AutoRange
IERANGE	IQUANT	11	I/E Range
POSFEEDENABLE	TOGGLE	F	Positive Feedback IR Comp
POSFEEDRESISTANCE	QUANT	0	Positive Feedback Resistance (ohm)
ACHSELECT	IQUANT	0	Ach Select
SENSECABLEID	IQUANT	14	Sense Cable ID
PWRCABLEID	IQUANT	7	Power Cable ID
DCCALDATE	LABEL	11/9/2022	DC Calibration Date
ACCALDATE	LABEL	11/9/2022	AC Calibration Date
THERMOSELECT	IQUANT	1	Thermo Select
FRAMEWORKVERSION	LABEL	7.8.2	Framework Version
INSTRUMENTVERSION	LABEL	4.40	Instrument Version
COMPLIANCEVOLTAGE	IQUANT	0	Compliance Voltage
CURVE	TABLE	13001
	Pt	T	Vf	Im	Vu	Sig	Ach	IERange	Over	Cycle	Temp
	#	s	V vs. Ref.	A	V	V	V	#	bits	#	deg C
	0	0.002	2.99763E-001	-3.33755E-005	0.00000E+000	3.00000E-001	-7.95939E-004	11	..........a	0	-327.74
	137	0.276	2.85156E-001	5.98940E-006	0.00000E+000	2.86300E-001	-8.29272E-004	8	..........a	0	-327.74
	274	0.55	2.71502E-001	4.63617E-006	0.00000E+000	2.72600E-001	-7.70939E-004	8	..........a	0	-327.74
	411	0.824	2.57722E-001	3.24087E-006	0.00000E+000	2.58900E-001	-8.62605E-004	8	..........a	0	-327.74
	548	1.098	2.44093E-001	1.99555E-006	0.00000E+000	2.45200E-001	-8.20939E-004	8	..........a	0	-327.74
	685	1.372	2.30288E-001	1.11854E-006	0.00000E+000	2.31500E-001	-8.12605E-004	8	..........a	0	-327.74
	822	1.646	2.16610E-001	3.54848E-007	0.00000E+000	2.17800E-001	-8.37606E-004	8	..........a	0	-327.74
	959	1.92	2.02896E-001	-2.37604E-007	0.00000E+000	2.04100E-001	-8.20939E-004	8	..........a	0	-327.74
	1096	2.194	1.89212E-001	2.98186E-007	0.00000E+000	1.90400E-001	-8.37606E-004	8	..........a	0	-327.74
	1233	2.468	1.75519E-001	4.86921E-007	0.00000E+000	1.76700E-001	-8.45939E-004	8	..........a	0	-327.74
	1370	2.742	1.61817E-001	6.32048E-008	0.00000E+000	1.63000E-001	-7.79272E-004	8	..........a	0	-327.74
	1507	3.016	1.48141E-001	-1.58861E-007	0.00000E+000	1.49300E-001	-7.95939E-004	8	..........a	0	-327.74
	1644	3.29	1.34411E-001	-5.78410E-007	0.00000E+000	1.35600E-001	-8.54272E-004	8	..........a	0	-327.74
	1781	3.564	1.20731E-001	-3.71760E-007	0.00000E+000	1.21900E-001	-7.79272E-004	8	..........a	0	-327.74
	1918	3.838	1.07052E-001	3.99428E-007	0.00000E+000	1.08200E-001	-8.20939E-004	8	..........a	0	-327.74
	2055	4.112	9.33526E-002	-1.23406E-010	0.00000E+000	9.45000E-002	-7.87605E-004	8	..........a	0	-327.74
	2192	4.386	7.96831E-002	1.25700E-007	0.00000E+000	8.08000E-002	-8.29272E-004	8	..........a	0	-327.74
	2329	4.66	6.59610E-002	-3.75093E-007	0.00000E+000	6.71000E-002	-8.12605E-004	8	..........a	0	-327.74
	2466	4.934	5.22756E-002	-7.95476E-007	0.00000E+000	5.34000E-002	-7.79272E-004	8	..........a	0	-327.74
	2603	5.208	3.85764E-002	-9.84628E-007	0.00000E+000	3.97000E-002	-8.04272E-004	8	..........a	0	-327.74
	2740	5.482	2.49143E-002	-2.08440E-007	0.00000E+000	2.60000E-002	-8.04272E-004	8	..........a	0	-327.74
	2877	5.756	1.11939E-002	1.72779E-007	0.00000E+000	1.23000E-002	-8.54272E-004	8	..........a	0	-327.74
	3014	6.03	-2.50919E-003	-6.13824E-007	0.00000E+000	-1.40002E-003	-7.95939E-004	8	..........a	0	-327.74
	3151	6.304	-1.61927E-002	-7.01734E-007	0.00000E+000	-1.51000E-002	-7.62605E-004	8	..........a	0	-327.74
	3288	6.578	-2.98932E-002	-6.89651E-007	0.00000E+000	-2.88000E-002	-8.12605E-004	8	..........a	0	-327.74
	3425	6.852	-4.35753E-002	-6.94651E-007	0.00000E+000	-4.25000E-002	-8.45939E-004	8	..........a	0	-327.74
	3562	7.126	-5.72819E-002	-1.95941E-007	0.00000E+000	-5.62000E-002	-8.12605E-004	8	..........a	0	-327.74
	3699	7.4	-7.09799E-002	-6.37572E-007	0.00000E+000	-6.99000E-002	-8.04272E-004	8	..........a	0	-327.74
	3836	7.674	-8.46486E-002	-3.22598E-007	0.00000E+000	-8.36000E-002	-8.20939E-004	8	..........a	0	-327.74
	3973	7.948	-9.83494E-002	-1.05421E-006	0.00000E+000	-9.73000E-002	-8.29272E-004	8	..........a	0	-327.74
	4110	8.222	-1.12048E-001	-8.25890E-007	0.00000E+000	-1.11000E-001	-8.20939E-004	8	..........a	0	-327.74
	4247	8.496	-1.25737E-001	-4.48837E-007	0.00000E+000	-1.24700E-001	-7.87605E-004	8	..........a	0	-327.74
	4384	8.77	-1.39425E-001	-1.07420E-006	0.00000E+000	-1.38400E-001	-8.12605E-004	8	..........a	0	-327.74
	4521	9.044	-1.53121E-001	-1.26002E-006	0.00000E+000	-1.52100E-001	-7.95939E-004	8	..........a	0	-327.74
	4658	9.318	-1.66821E-001	-2.42243E-006	0.00000E+000	-1.65800E-001	-7.87605E-004	8	..........a	0	-327.74
	4795	9.592	-1.80511E-001	-2.55575E-006	0.00000E+000	-1.79500E-001	-7.87605E-004	8	..........a	0	-327.74
	4932	9.866	-1.94206E-001	-2.76198E-006	0.00000E+000	-1.93200E-001	-8.12605E-004	8	..........a	0	-327.74
	5069	10.14	-2.07906E-001	-3.45901E-006	0.00000E+000	-2.06900E-001	-7.95939E-004	8	..........a	0	-327.74
	5206	10.414	-2.21601E-001	-2.89447E-006	0.00000E+000	-2.20600E-001	-7.45939E-004	8	..........a	0	-327.74
	5343	10.688	-2.35274E-001	-4.22853E-006	0.00000E+000	-2.34300E-001	-8.12605E-004	8	..........a	0	-327.74
	5480	10.962	-2.48978E-001	-4.90265E-006	0.00000E+000	-2.48000E-001	-8.20939E-004	8	..........a	0	-327.74
	5617	11.236	-2.62676E-001	-4.97889E-006	0.00000E+000	-2.61700E-001	-8.20939E-004	8	..........a	0	-327.74
	5754	11.51	-2.76323E-001	-5.75841E-006	0.00000E+000	-2.75400E-001	-8.12605E-004	8	..........a	0	-327.74
	5891	11.784	-2.89998E-001	-5.37886E-006	0.00000E+000	-2.89100E-001	-8.20939E-004	8	..........a	0	-327.74
	6028	12.058	-3.03698E-001	-6.53043E-006	0.00000E+000	-3.02800E-001	-8.04272E-004	8	..........a	0	-327.74
	6165	12.332	-3.17348E-001	-7.18580E-006	0.00000E+000	-3.16500E-001	-8.04272E-004	8	..........a	0	-327.74
	6302	12.606	-3.31115E-001	-8.39570E-006	0.00000E+000	-3.30200E-001	-7.87605E-004	8	..........a	0	-327.74
[...]
	8494	16.99	-5.50121E-001	-5.10169E-004	0.00000E+000	-5.49400E-001	-8.20939E-004	9	..........a	0	-327.74
	8631	17.264	-5.63742E-001	-5.93471E-004	0.00000E+000	-5.63100E-001	-7.79272E-004	9	..........a	0	-327.74
	8768	17.538	-5.77529E-001	-6.61003E-004	0.00000E+000	-5.76800E-001	-8.45939E-004	9	..........a	0	-327.74
	8905	17.812	-5.91142E-001	-7.04306E-004	0.00000E+000	-5.90500E-001	-8.04272E-004	9	..........a	0	-327.74
	9042	18.086	-6.04912E-001	-7.38045E-004	0.00000E+000	-6.04200E-001	-8.20939E-004	9	..........a	0	-327.74
	9179	18.36	-6.18550E-001	-7.51759E-004	0.00000E+000	-6.17900E-001	-8.62605E-004	9	..........a	0	-327.74
	9316	18.634	-6.32254E-001	-7.70731E-004	0.00000E+000	-6.31600E-001	-7.70939E-004	9	..........a	0	-327.74
	9453	18.908	-6.45958E-001	-7.77354E-004	0.00000E+000	-6.45300E-001	-8.37606E-004	9	..........a	0	-327.74
	9590	19.182	-6.59629E-001	-7.83672E-004	0.00000E+000	-6.59000E-001	-8.20939E-004	9	..........a	0	-327.74
	9727	19.456	-6.73396E-001	-7.85711E-004	0.00000E+000	-6.72700E-001	-8.29272E-004	9	..........a	0	-327.74
	9864	19.73	-6.87004E-001	-7.90596E-004	0.00000E+000	-6.86400E-001	-8.37606E-004	9	..........a	0	-327.74
	10001	20.004	-7.00742E-001	-7.95360E-004	0.00000E+000	-7.00100E-001	-8.20939E-004	9	..........a	0	-327.74
	10138	20.278	-7.14387E-001	-7.92731E-004	0.00000E+000	-7.13800E-001	-8.37606E-004	9	..........a	0	-327.74
	10275	20.552	-7.28142E-001	-7.93981E-004	0.00000E+000	-7.27500E-001	-8.04272E-004	9	..........a	0	-327.74
	10412	20.826	-7.41846E-001	-7.98799E-004	0.00000E+000	-7.41200E-001	-8.87605E-004	9	..........a	0	-327.74
	10549	21.1	-7.55492E-001	-7.95448E-004	0.00000E+000	-7.54900E-001	-7.95939E-004	9	..........a	0	-327.74
	10686	21.374	-7.69187E-001	-7.99551E-004	0.00000E+000	-7.68600E-001	-8.54272E-004	9	..........a	0	-327.74
	10823	21.648	-7.82871E-001	-7.97570E-004	0.00000E+000	-7.82300E-001	-8.04272E-004	9	..........a	0	-327.74
	10960	21.922	-7.96642E-001	-8.00132E-004	0.00000E+000	-7.96000E-001	-8.37606E-004	9	..........a	0	-327.74
	11097	22.196	-8.10258E-001	-8.02167E-004	0.00000E+000	-8.09700E-001	-7.79272E-004	9	..........a	0	-327.74
	11234	22.47	-8.23950E-001	-7.97199E-004	0.00000E+000	-8.23400E-001	-8.12605E-004	9	..........a	0	-327.74
	11371	22.744	-8.37625E-001	-7.99689E-004	0.00000E+000	-8.37100E-001	-8.12605E-004	9	..........a	0	-327.74
	11508	23.018	-8.51296E-001	-7.99071E-004	0.00000E+000	-8.50800E-001	-8.37606E-004	9	..........a	0	-327.74
	11645	23.292	-8.65033E-001	-7.99881E-004	0.00000E+000	-8.64500E-001	-7.95939E-004	9	..........a	0	-327.74
	11782	23.566	-8.78725E-001	-7.97821E-004	0.00000E+000	-8.78200E-001	-8.37606E-004	9	..........a	0	-327.74
	11919	23.84	-8.92404E-001	-8.04181E-004	0.00000E+000	-8.91900E-001	-7.62605E-004	9	..........a	0	-327.74
	12056	24.114	-9.06083E-001	-8.00236E-004	0.00000E+000	-9.05600E-001	-7.62605E-004	9	..........a	0	-327.74
	12193	24.388	-9.19800E-001	-7.99898E-004	0.00000E+000	-9.19300E-001	-7.70939E-004	9	..........a	0	-327.74
	12330	24.662	-9.33442E-001	-8.00608E-004	0.00000E+000	-9.33000E-001	-8.45939E-004	9	..........a	0	-327.74
	12467	24.936	-9.47167E-001	-8.05426E-004	0.00000E+000	-9.46700E-001	-7.95939E-004	9	..........a	0	-327.74
	12604	25.21	-9.60900E-001	-8.03981E-004	0.00000E+000	-9.60400E-001	-7.87605E-004	9	..........a	0	-327.74
	12741	25.484	-9.74604E-001	-8.03897E-004	0.00000E+000	-9.74100E-001	-7.87605E-004	9	..........a	0	-327.74
	12878	25.758	-9.88279E-001	-8.02547E-004	0.00000E+000	-9.87800E-001	-7.70939E-004	9	..........a	0	-327.74
	13000	26.002	-1.00040E+000	-8.05915E-004	0.00000E+000	-1.00000E+000	-7.79272E-004	9	..........a	0	-327.74