Folder: 2024-09-QuCO2-NCE/data/02-SI/Figures_S9_S11_RDE/14btmapaq-rde

Note: README.txt
This repository contains data and source code to support the scientific article "In Situ Techniques for Aqueous Quinone-Mediated Electrochemical Carbon Capture and Release."
The manuscript for this work has been accepted for publication in Nature Chemical Engineering.

File: 1mkcl-5mmolar14btmapaq-nitrogen-50mvpers.DTA
EXPLAIN
TAG	CV
TITLE	LABEL	Cyclic Voltammetry	Test &Identifier
DATE	LABEL	1/31/2023	Date
TIME	LABEL	13:58:39	Time
NOTES	NOTES	1	&Notes...

PSTAT	PSTAT	REF3000-21108	Potentiostat
VINIT	POTEN	5.00000E-001	F	Initial &E (V)
VLIMIT1	POTEN	-1.00000E+000	F	Scan Limit &1 (V)
VLIMIT2	POTEN	5.00000E-001	F	Scan Limit &2 (V)
VFINAL	POTEN	5.00000E-001	F	Final &E (V)
SCANRATE	QUANT	4.99999E+001	&Scan Rate (mV/s)
STEPSIZE	QUANT	1.00000E+000	St&ep Size (mV)
CYCLES	IQUANT	1	C&ycles (#)
IMODE	SELECTOR	1	I/E Range &Mode
IRANGE	QUANT	1.00000E+001	&Max Current (mA)
AREA	QUANT	1.00000E+000	Electrode &Area (cm^2)
ELECTRODETYPE	SELECTOR	0	Electrode Type
STRIPPING	TOGGLE	F	Used for Stripping
POLARITY	TOGGLE	F	Signal Polarity
CONDIT	TWOPARAM	F	1.50000E+001	0.00000E+000	Conditionin&g	Time(s)	E(V)
DELAY	TWOPARAM	F	5.00000E+000	0.00000E+000	Init. De&lay	Time(s)	Stab.(mV/s)
EQDELAY	QUANT	0.00000E+000	Equil. &Time (s)
IRCOMP	SELECTOR	0	IRCom&p
PFCOR	QUANT	5.00000E+001	PF Corr. (ohm)
SAMPLINGMODE	SELECTOR	1	Sampling &Mode
EOC	QUANT	0	Open Circuit (V)
PSTATMODEL	IQUANT	5	Pstat Model
PSTATSECTION	LABEL	REF3000-21108	Pstat Section
PSTATSERIALNO	LABEL	21108	Pstat Serial Number
CTRLMODE	IQUANT	1	Control Mode
ELECTROMETER	IQUANT	0	RE=0 or CS=1
IESTAB	IQUANT	2	I/E Stability
CASPEED	IQUANT	4	Control Amp Speed
CONVENTION	IQUANT	1	Current Convention
ICHRANGE	IQUANT	2	Ich Range
ICHRANGEMODE	TOGGLE	F	Ich Auto Range
ICHOFFSETENABLE	TOGGLE	F	Ich Offset Enable
ICHOFFSET	QUANT	0	Ich Offset (V)
ICHFILTER	IQUANT	2	Ich Filter
VCHRANGE	IQUANT	2	Vch Range
VCHRANGEMODE	TOGGLE	F	Vch Auto Range
VCHOFFSETENABLE	TOGGLE	F	Vch Offset Enable
VCHOFFSET	QUANT	0	Vch Offset (V)
VCHFILTER	IQUANT	2	Vch Filter
ACHRANGE	IQUANT	2	Ach Range
ACHOFFSETENABLE	TOGGLE	F	Ach Offset Enable
ACHOFFSET	QUANT	0	Ach Offset (V)
ACHFILTER	IQUANT	0	Ach Filter
IERANGELOWERLIMIT	IQUANT	2	I/E Range Lower Limit
IERANGEMODE	TOGGLE	F	I/E AutoRange
IERANGE	IQUANT	10	I/E Range
POSFEEDENABLE	TOGGLE	F	Positive Feedback IR Comp
POSFEEDRESISTANCE	QUANT	0	Positive Feedback Resistance (ohm)
ACHSELECT	IQUANT	0	Ach Select
SENSECABLEID	IQUANT	14	Sense Cable ID
PWRCABLEID	IQUANT	7	Power Cable ID
DCCALDATE	LABEL	11/9/2022	DC Calibration Date
ACCALDATE	LABEL	11/9/2022	AC Calibration Date
THERMOSELECT	IQUANT	1	Thermo Select
FRAMEWORKVERSION	LABEL	7.8.2	Framework Version
INSTRUMENTVERSION	LABEL	4.40	Instrument Version
COMPLIANCEVOLTAGE	IQUANT	0	Compliance Voltage
CURVE1	TABLE
	Pt	T	Vf	Im	Vu	Sig	Ach	IERange	Over	Temp
	#	s	V vs. Ref.	A	V	V	V	#	bits	deg C
	0	0.02	4.98646E-001	4.70816E-006	0.00000E+000	5.00000E-001	-1.19011E-003	10	..........a	-327.74
	31	0.64	4.67629E-001	9.02476E-007	0.00000E+000	4.69000E-001	-1.21177E-003	10	..........a	-327.74
	62	1.26	4.36638E-001	5.68278E-007	0.00000E+000	4.38000E-001	-1.23011E-003	10	..........a	-327.74
	93	1.88	4.05692E-001	4.17889E-007	0.00000E+000	4.07000E-001	-1.25011E-003	10	..........a	-327.74
	124	2.5	3.74654E-001	4.88906E-007	0.00000E+000	3.76000E-001	-1.23927E-003	10	..........a	-327.74
	155	3.12	3.43667E-001	4.63842E-007	0.00000E+000	3.45000E-001	-1.23261E-003	10	..........a	-327.74
	186	3.74	3.12698E-001	6.51828E-007	0.00000E+000	3.14000E-001	-1.24011E-003	10	..........a	-327.74
	217	4.36	2.81704E-001	6.05876E-007	0.00000E+000	2.83000E-001	-1.24594E-003	10	..........a	-327.74
	248	4.98	2.50738E-001	7.53364E-008	0.00000E+000	2.52000E-001	-1.22344E-003	10	..........a	-327.74
	279	5.6	2.19728E-001	1.67241E-007	0.00000E+000	2.21000E-001	-1.27427E-003	10	..........a	-327.74
	310	6.22	1.88728E-001	2.17371E-007	0.00000E+000	1.90000E-001	-1.31261E-003	10	..........a	-327.74
	341	6.84	1.57785E-001	3.77392E-008	0.00000E+000	1.59000E-001	-1.30761E-003	10	..........a	-327.74
	372	7.46	1.26804E-001	-2.07455E-008	0.00000E+000	1.28000E-001	-1.28761E-003	10	..........a	-327.74
	403	8.08	9.57581E-002	-4.58103E-008	0.00000E+000	9.70000E-002	-1.28427E-003	10	..........a	-327.74
	434	8.7	6.48848E-002	-7.92302E-008	0.00000E+000	6.60000E-002	-1.24261E-003	10	..........a	-327.74
	465	9.32	3.37836E-002	-2.49230E-008	0.00000E+000	3.50000E-002	-1.26344E-003	10	..........a	-327.74
	496	9.94	2.81940E-003	2.42435E-007	0.00000E+000	4.00001E-003	-1.28761E-003	10	..........a	-327.74
	527	10.56	-2.81881E-002	-7.50527E-008	0.00000E+000	-2.70000E-002	-1.24927E-003	10	..........a	-327.74
	558	11.18	-5.91852E-002	-3.08991E-007	0.00000E+000	-5.80000E-002	-1.22094E-003	10	..........a	-327.74
	589	11.8	-9.01631E-002	-7.81046E-007	0.00000E+000	-8.90000E-002	-1.28594E-003	10	..........a	-327.74
	620	12.42	-1.21154E-001	-2.57736E-006	0.00000E+000	-1.20000E-001	-1.25761E-003	10	..........a	-327.74
	651	13.04	-1.52148E-001	-5.91934E-006	0.00000E+000	-1.51000E-001	-1.21677E-003	10	..........a	-327.74
	682	13.66	-1.83094E-001	-1.20101E-005	0.00000E+000	-1.82000E-001	-1.24177E-003	10	..........a	-327.74
	713	14.28	-2.14110E-001	-1.74158E-005	0.00000E+000	-2.13000E-001	-1.23844E-003	10	..........a	-327.74
	744	14.9	-2.45119E-001	-1.79421E-005	0.00000E+000	-2.44000E-001	-1.24261E-003	10	..........a	-327.74
	775	15.52	-2.76092E-001	-1.64716E-005	0.00000E+000	-2.75000E-001	-1.25677E-003	10	..........a	-327.74
	806	16.14	-3.07075E-001	-1.48466E-005	0.00000E+000	-3.06000E-001	-1.18177E-003	10	..........a	-327.74
	837	16.76	-3.37977E-001	-1.46795E-005	0.00000E+000	-3.37000E-001	-1.19344E-003	10	..........a	-327.74
	868	17.38	-3.69043E-001	-1.47213E-005	0.00000E+000	-3.68000E-001	-1.23011E-003	10	..........a	-327.74
	899	18	-4.00036E-001	-1.58951E-005	0.00000E+000	-3.99000E-001	-1.26011E-003	10	..........a	-327.74
	930	18.62	-4.31033E-001	-2.09374E-005	0.00000E+000	-4.30000E-001	-1.27511E-003	10	..........a	-327.74
	961	19.24	-4.62021E-001	-4.27521E-005	0.00000E+000	-4.61000E-001	-1.25761E-003	10	..........a	-327.74
	992	19.86	-4.93102E-001	-8.26888E-005	0.00000E+000	-4.92000E-001	-1.29594E-003	10	..........a	-327.74
	1023	20.48	-5.24054E-001	-1.45480E-004	0.00000E+000	-5.23000E-001	-1.30344E-003	10	..........a	-327.74
	1054	21.1	-5.55044E-001	-2.13435E-004	0.00000E+000	-5.54000E-001	-1.33677E-003	10	..........a	-327.74
	1085	21.72	-5.85977E-001	-2.11067E-004	0.00000E+000	-5.85000E-001	-1.28177E-003	10	..........a	-327.74
	1116	22.34	-6.16965E-001	-1.69133E-004	0.00000E+000	-6.16000E-001	-1.28011E-003	10	..........a	-327.74
	1147	22.96	-6.47943E-001	-1.42878E-004	0.00000E+000	-6.47000E-001	-1.28677E-003	10	..........a	-327.74
	1178	23.58	-6.78933E-001	-1.25683E-004	0.00000E+000	-6.78000E-001	-1.26844E-003	10	..........a	-327.74
	1209	24.2	-7.09935E-001	-1.13397E-004	0.00000E+000	-7.09000E-001	-1.29011E-003	10	..........a	-327.74
	1240	24.82	-7.40928E-001	-1.03944E-004	0.00000E+000	-7.40000E-001	-1.24094E-003	10	..........a	-327.74
	1271	25.44	-7.71839E-001	-9.68295E-005	0.00000E+000	-7.71000E-001	-1.28844E-003	10	..........a	-327.74
	1302	26.06	-8.02976E-001	-9.07597E-005	0.00000E+000	-8.02000E-001	-1.25927E-003	10	..........a	-327.74
	1333	26.68	-8.33861E-001	-8.59389E-005	0.00000E+000	-8.33000E-001	-1.26344E-003	10	..........a	-327.74
	1364	27.3	-8.64828E-001	-8.19494E-005	0.00000E+000	-8.64000E-001	-1.26011E-003	10	..........a	-327.74
	1395	27.92	-8.95848E-001	-7.84027E-005	0.00000E+000	-8.95000E-001	-1.23594E-003	10	..........a	-327.74
	1426	28.54	-9.26800E-001	-7.48769E-005	0.00000E+000	-9.26000E-001	-1.27927E-003	10	..........a	-327.74
[...]
	1984	39.7	-5.17056E-001	1.23169E-004	0.00000E+000	-5.16000E-001	-1.31427E-003	10	..........a	-327.74
	2015	40.32	-4.86074E-001	1.35421E-004	0.00000E+000	-4.85000E-001	-1.33761E-003	10	..........a	-327.74
	2046	40.94	-4.55035E-001	1.19463E-004	0.00000E+000	-4.54000E-001	-1.28177E-003	10	..........a	-327.74
	2077	41.56	-4.24047E-001	9.67588E-005	0.00000E+000	-4.23000E-001	-1.23594E-003	10	..........a	-327.74
	2108	42.18	-3.93109E-001	7.82025E-005	0.00000E+000	-3.92000E-001	-1.27677E-003	10	..........a	-327.74
	2139	42.8	-3.62009E-001	6.52481E-005	0.00000E+000	-3.61000E-001	-1.28761E-003	10	..........a	-327.74
	2170	43.42	-3.31113E-001	5.57778E-005	0.00000E+000	-3.30000E-001	-1.30177E-003	10	..........a	-327.74
	2201	44.04	-3.00087E-001	4.92651E-005	0.00000E+000	-2.99000E-001	-1.24844E-003	10	..........a	-327.74
	2232	44.66	-2.69129E-001	4.41477E-005	0.00000E+000	-2.68000E-001	-1.32344E-003	10	..........a	-327.74
	2263	45.28	-2.38188E-001	3.94522E-005	0.00000E+000	-2.37000E-001	-1.30261E-003	10	..........a	-327.74
	2294	45.9	-2.07096E-001	3.59431E-005	0.00000E+000	-2.06000E-001	-1.27511E-003	10	..........a	-327.74
	2325	46.52	-1.76144E-001	3.26429E-005	0.00000E+000	-1.75000E-001	-1.32011E-003	10	..........a	-327.74
	2356	47.14	-1.45155E-001	2.98691E-005	0.00000E+000	-1.44000E-001	-1.28261E-003	10	..........a	-327.74
	2387	47.76	-1.14200E-001	2.77636E-005	0.00000E+000	-1.13000E-001	-1.31594E-003	10	..........a	-327.74
	2418	48.38	-8.31618E-002	2.60718E-005	0.00000E+000	-8.20000E-002	-1.33011E-003	10	..........a	-327.74
	2449	49	-5.21677E-002	2.46305E-005	0.00000E+000	-5.10000E-002	-1.29844E-003	10	..........a	-327.74
	2480	49.62	-2.12156E-002	2.40582E-005	0.00000E+000	-2.00000E-002	-1.32094E-003	10	..........a	-327.74
	2511	50.24	9.74606E-003	2.40039E-005	0.00000E+000	1.10000E-002	-1.33261E-003	10	..........a	-327.74
	2542	50.86	4.08006E-002	2.42003E-005	0.00000E+000	4.20000E-002	-1.31761E-003	10	..........a	-327.74
	2573	51.48	7.17765E-002	2.38117E-005	0.00000E+000	7.30000E-002	-1.33011E-003	10	..........a	-327.74
	2604	52.1	1.02714E-001	2.23287E-005	0.00000E+000	1.04000E-001	-1.27677E-003	10	..........a	-327.74
	2635	52.72	1.33733E-001	2.05951E-005	0.00000E+000	1.35000E-001	-1.30427E-003	10	..........a	-327.74
	2666	53.34	1.64717E-001	1.90578E-005	0.00000E+000	1.66000E-001	-1.34344E-003	10	..........a	-327.74
	2697	53.96	1.95736E-001	1.80218E-005	0.00000E+000	1.97000E-001	-1.29844E-003	10	..........a	-327.74
	2728	54.58	2.26757E-001	1.70818E-005	0.00000E+000	2.28000E-001	-1.27177E-003	10	..........a	-327.74
	2759	55.2	2.57672E-001	1.62380E-005	0.00000E+000	2.59000E-001	-1.28177E-003	10	..........a	-327.74
	2790	55.82	2.88662E-001	1.61711E-005	0.00000E+000	2.90000E-001	-1.29927E-003	10	..........a	-327.74
	2821	56.44	3.19650E-001	1.58202E-005	0.00000E+000	3.21000E-001	-1.35177E-003	10	..........a	-327.74
	2852	57.06	3.50660E-001	1.53941E-005	0.00000E+000	3.52000E-001	-1.30594E-003	10	..........a	-327.74
	2883	57.68	3.81697E-001	1.47174E-005	0.00000E+000	3.83000E-001	-1.25594E-003	10	..........a	-327.74
	2914	58.3	4.12549E-001	1.39529E-005	0.00000E+000	4.14000E-001	-1.25761E-003	10	..........a	-327.74
	2945	58.92	4.43619E-001	1.32051E-005	0.00000E+000	4.45000E-001	-1.25344E-003	10	..........a	-327.74
	2976	59.54	4.74655E-001	1.28626E-005	0.00000E+000	4.76000E-001	-1.27594E-003	10	..........a	-327.74
	3000	60.02	4.98585E-001	1.24323E-005	0.00000E+000	5.00000E-001	-1.30094E-003	10	..........a	-327.74
CURVE2	TABLE
	Pt	T	Vf	Im	Vu	Sig	Ach	IERange	Over	Temp
	#	s	V vs. Ref.	A	V	V	V	#	bits	deg C
	3001	60.04	4.98599E-001	1.23488E-005	0.00000E+000	5.00000E-001	-1.31761E-003	10	..........a	-327.74

File: 1mkcl-5mmolar14btmapaq-nitrogen-100mvpers.DTA
EXPLAIN
TAG	CV
TITLE	LABEL	Cyclic Voltammetry	Test &Identifier
DATE	LABEL	1/31/2023	Date
TIME	LABEL	14:01:09	Time
NOTES	NOTES	1	&Notes...

PSTAT	PSTAT	REF3000-21108	Potentiostat
VINIT	POTEN	5.00000E-001	F	Initial &E (V)
VLIMIT1	POTEN	-1.00000E+000	F	Scan Limit &1 (V)
VLIMIT2	POTEN	5.00000E-001	F	Scan Limit &2 (V)
VFINAL	POTEN	5.00000E-001	F	Final &E (V)
SCANRATE	QUANT	9.99998E+001	&Scan Rate (mV/s)
STEPSIZE	QUANT	1.00000E+000	St&ep Size (mV)
CYCLES	IQUANT	1	C&ycles (#)
IMODE	SELECTOR	1	I/E Range &Mode
IRANGE	QUANT	1.00000E+001	&Max Current (mA)
AREA	QUANT	1.00000E+000	Electrode &Area (cm^2)
ELECTRODETYPE	SELECTOR	0	Electrode Type
STRIPPING	TOGGLE	F	Used for Stripping
POLARITY	TOGGLE	F	Signal Polarity
CONDIT	TWOPARAM	F	1.50000E+001	0.00000E+000	Conditionin&g	Time(s)	E(V)
DELAY	TWOPARAM	F	5.00000E+000	0.00000E+000	Init. De&lay	Time(s)	Stab.(mV/s)
EQDELAY	QUANT	0.00000E+000	Equil. &Time (s)
IRCOMP	SELECTOR	0	IRCom&p
PFCOR	QUANT	5.00000E+001	PF Corr. (ohm)
SAMPLINGMODE	SELECTOR	1	Sampling &Mode
EOC	QUANT	0	Open Circuit (V)
PSTATMODEL	IQUANT	5	Pstat Model
PSTATSECTION	LABEL	REF3000-21108	Pstat Section
PSTATSERIALNO	LABEL	21108	Pstat Serial Number
CTRLMODE	IQUANT	1	Control Mode
ELECTROMETER	IQUANT	0	RE=0 or CS=1
IESTAB	IQUANT	2	I/E Stability
CASPEED	IQUANT	4	Control Amp Speed
CONVENTION	IQUANT	1	Current Convention
ICHRANGE	IQUANT	2	Ich Range
ICHRANGEMODE	TOGGLE	F	Ich Auto Range
ICHOFFSETENABLE	TOGGLE	F	Ich Offset Enable
ICHOFFSET	QUANT	0	Ich Offset (V)
ICHFILTER	IQUANT	2	Ich Filter
VCHRANGE	IQUANT	2	Vch Range
VCHRANGEMODE	TOGGLE	F	Vch Auto Range
VCHOFFSETENABLE	TOGGLE	F	Vch Offset Enable
VCHOFFSET	QUANT	0	Vch Offset (V)
VCHFILTER	IQUANT	2	Vch Filter
ACHRANGE	IQUANT	2	Ach Range
ACHOFFSETENABLE	TOGGLE	F	Ach Offset Enable
ACHOFFSET	QUANT	0	Ach Offset (V)
ACHFILTER	IQUANT	0	Ach Filter
IERANGELOWERLIMIT	IQUANT	2	I/E Range Lower Limit
IERANGEMODE	TOGGLE	F	I/E AutoRange
IERANGE	IQUANT	10	I/E Range
POSFEEDENABLE	TOGGLE	F	Positive Feedback IR Comp
POSFEEDRESISTANCE	QUANT	0	Positive Feedback Resistance (ohm)
ACHSELECT	IQUANT	0	Ach Select
SENSECABLEID	IQUANT	14	Sense Cable ID
PWRCABLEID	IQUANT	7	Power Cable ID
DCCALDATE	LABEL	11/9/2022	DC Calibration Date
ACCALDATE	LABEL	11/9/2022	AC Calibration Date
THERMOSELECT	IQUANT	1	Thermo Select
FRAMEWORKVERSION	LABEL	7.8.2	Framework Version
INSTRUMENTVERSION	LABEL	4.40	Instrument Version
COMPLIANCEVOLTAGE	IQUANT	0	Compliance Voltage
CURVE1	TABLE
	Pt	T	Vf	Im	Vu	Sig	Ach	IERange	Over	Temp
	#	s	V vs. Ref.	A	V	V	V	#	bits	deg C
	0	0.01	4.98820E-001	2.13930E-005	0.00000E+000	5.00000E-001	-1.09927E-003	10	..........a	-327.74
	31	0.32	4.67799E-001	2.03457E-006	0.00000E+000	4.69000E-001	-1.10094E-003	10	..........a	-327.74
	62	0.63	4.36834E-001	5.55746E-007	0.00000E+000	4.38000E-001	-1.09261E-003	10	..........a	-327.74
	93	0.94	4.05909E-001	-3.21524E-007	0.00000E+000	4.07000E-001	-1.11761E-003	10	..........a	-327.74
	124	1.25	3.74880E-001	-1.24057E-006	0.00000E+000	3.76000E-001	-1.08427E-003	10	..........a	-327.74
	155	1.56	3.43806E-001	-2.45204E-006	0.00000E+000	3.45000E-001	-1.13761E-003	10	..........a	-327.74
	186	1.87	3.12882E-001	-3.04524E-006	0.00000E+000	3.14000E-001	-1.10427E-003	10	..........a	-327.74
	217	2.18	2.81900E-001	-2.84472E-006	0.00000E+000	2.83000E-001	-1.10094E-003	10	..........a	-327.74
	248	2.49	2.50909E-001	-3.17056E-006	0.00000E+000	2.52000E-001	-1.09761E-003	10	..........a	-327.74
	279	2.8	2.19874E-001	-4.06454E-006	0.00000E+000	2.21000E-001	-1.07761E-003	10	..........a	-327.74
	310	3.11	1.88956E-001	-3.21234E-006	0.00000E+000	1.90000E-001	-1.08927E-003	10	..........a	-327.74
	341	3.42	1.57991E-001	-4.29012E-006	0.00000E+000	1.59000E-001	-1.12594E-003	10	..........a	-327.74
	372	3.73	1.27013E-001	-4.87497E-006	0.00000E+000	1.28000E-001	-1.13094E-003	10	..........a	-327.74
	403	4.04	9.59477E-002	-5.15904E-006	0.00000E+000	9.70000E-002	-1.09761E-003	10	..........a	-327.74
	434	4.35	6.50411E-002	-4.75800E-006	0.00000E+000	6.60000E-002	-1.11594E-003	10	..........a	-327.74
	465	4.66	3.40602E-002	-5.44311E-006	0.00000E+000	3.50000E-002	-1.08261E-003	10	..........a	-327.74
	496	4.97	2.98856E-003	-5.19246E-006	0.00000E+000	4.00001E-003	-1.10427E-003	10	..........a	-327.74
	527	5.28	-2.80923E-002	-5.47653E-006	0.00000E+000	-2.70000E-002	-1.07927E-003	10	..........a	-327.74
	558	5.59	-5.92206E-002	-5.54337E-006	0.00000E+000	-5.80000E-002	-1.13761E-003	10	..........a	-327.74
	589	5.9	-8.99464E-002	-5.55172E-006	0.00000E+000	-8.90000E-002	-1.08594E-003	10	..........a	-327.74
	620	6.21	-1.21038E-001	-5.91099E-006	0.00000E+000	-1.20000E-001	-1.09594E-003	10	..........a	-327.74
	651	6.52	-1.51986E-001	-5.97782E-006	0.00000E+000	-1.51000E-001	-1.06761E-003	10	..........a	-327.74
	682	6.83	-1.82885E-001	-6.62116E-006	0.00000E+000	-1.82000E-001	-1.10927E-003	10	..........a	-327.74
	713	7.14	-2.13916E-001	-7.65717E-006	0.00000E+000	-2.13000E-001	-1.08261E-003	10	..........a	-327.74
	744	7.45	-2.44963E-001	-8.87699E-006	0.00000E+000	-2.44000E-001	-1.09761E-003	10	..........a	-327.74
	775	7.76	-2.75903E-001	-8.87699E-006	0.00000E+000	-2.75000E-001	-1.11261E-003	10	..........a	-327.74
	806	8.07	-3.06934E-001	-8.29215E-006	0.00000E+000	-3.06000E-001	-1.07761E-003	10	..........a	-327.74
	837	8.38	-3.37886E-001	-8.93548E-006	0.00000E+000	-3.37000E-001	-1.12761E-003	10	..........a	-327.74
	868	8.69	-3.68933E-001	-1.13668E-005	0.00000E+000	-3.68000E-001	-1.10927E-003	10	..........a	-327.74
	899	9	-3.99827E-001	-1.39902E-005	0.00000E+000	-3.99000E-001	-1.10261E-003	10	..........a	-327.74
	930	9.31	-4.30844E-001	-2.76506E-005	0.00000E+000	-4.30000E-001	-1.10261E-003	10	..........a	-327.74
	961	9.62	-4.61837E-001	-5.93994E-005	0.00000E+000	-4.61000E-001	-1.10427E-003	10	..........a	-327.74
	992	9.93	-4.92901E-001	-1.12679E-004	0.00000E+000	-4.92000E-001	-1.11094E-003	10	..........a	-327.74
	1023	10.24	-5.24031E-001	-1.98518E-004	0.00000E+000	-5.23000E-001	-1.08094E-003	10	..........a	-327.74
	1054	10.55	-5.54771E-001	-2.92954E-004	0.00000E+000	-5.54000E-001	-1.11927E-003	10	..........a	-327.74
	1085	10.86	-5.85780E-001	-2.96162E-004	0.00000E+000	-5.85000E-001	-1.11594E-003	10	..........a	-327.74
	1116	11.17	-6.16785E-001	-2.38479E-004	0.00000E+000	-6.16000E-001	-1.11261E-003	10	..........a	-327.74
	1147	11.48	-6.47901E-001	-1.98969E-004	0.00000E+000	-6.47000E-001	-1.07927E-003	10	..........a	-327.74
	1178	11.79	-6.78730E-001	-1.75475E-004	0.00000E+000	-6.78000E-001	-1.09427E-003	10	..........a	-327.74
	1209	12.1	-7.09764E-001	-1.58372E-004	0.00000E+000	-7.09000E-001	-1.10761E-003	10	..........a	-327.74
	1240	12.41	-7.40729E-001	-1.44612E-004	0.00000E+000	-7.40000E-001	-1.05927E-003	10	..........a	-327.74
	1271	12.72	-7.71591E-001	-1.34544E-004	0.00000E+000	-7.71000E-001	-1.08094E-003	10	..........a	-327.74
	1302	13.03	-8.02636E-001	-1.26297E-004	0.00000E+000	-8.02000E-001	-1.09261E-003	10	..........a	-327.74
	1333	13.34	-8.33651E-001	-1.18979E-004	0.00000E+000	-8.33000E-001	-1.08594E-003	10	..........a	-327.74
	1364	13.65	-8.64598E-001	-1.12863E-004	0.00000E+000	-8.64000E-001	-1.11927E-003	10	..........a	-327.74
	1395	13.96	-8.95624E-001	-1.09086E-004	0.00000E+000	-8.95000E-001	-1.09927E-003	10	..........a	-327.74
	1426	14.27	-9.26649E-001	-1.03689E-004	0.00000E+000	-9.26000E-001	-1.10427E-003	10	..........a	-327.74
[...]
	1984	19.85	-5.16871E-001	1.63569E-004	0.00000E+000	-5.16000E-001	-1.11927E-003	10	..........a	-327.74
	2015	20.16	-4.85862E-001	1.85877E-004	0.00000E+000	-4.85000E-001	-1.10261E-003	10	..........a	-327.74
	2046	20.47	-4.54827E-001	1.68490E-004	0.00000E+000	-4.54000E-001	-1.10427E-003	10	..........a	-327.74
	2077	20.78	-4.23847E-001	1.38680E-004	0.00000E+000	-4.23000E-001	-1.09761E-003	10	..........a	-327.74
	2108	21.09	-3.92914E-001	1.14342E-004	0.00000E+000	-3.92000E-001	-1.10594E-003	10	..........a	-327.74
	2139	21.4	-3.61827E-001	9.77990E-005	0.00000E+000	-3.61000E-001	-1.09427E-003	10	..........a	-327.74
	2170	21.71	-3.30896E-001	8.31444E-005	0.00000E+000	-3.30000E-001	-1.09927E-003	10	..........a	-327.74
	2201	22.02	-2.99894E-001	7.44469E-005	0.00000E+000	-2.99000E-001	-1.08427E-003	10	..........a	-327.74
	2232	22.33	-2.68923E-001	6.63844E-005	0.00000E+000	-2.68000E-001	-1.09927E-003	10	..........a	-327.74
	2263	22.64	-2.37926E-001	6.05443E-005	0.00000E+000	-2.37000E-001	-1.12594E-003	10	..........a	-327.74
	2294	22.95	-2.06852E-001	5.67010E-005	0.00000E+000	-2.06000E-001	-1.08094E-003	10	..........a	-327.74
	2325	23.26	-1.75925E-001	5.02593E-005	0.00000E+000	-1.75000E-001	-1.10427E-003	10	..........a	-327.74
	2356	23.57	-1.45017E-001	4.74771E-005	0.00000E+000	-1.44000E-001	-1.10927E-003	10	..........a	-327.74
	2387	23.88	-1.13862E-001	4.24558E-005	0.00000E+000	-1.13000E-001	-1.06594E-003	10	..........a	-327.74
	2418	24.19	-8.30056E-002	4.16537E-005	0.00000E+000	-8.20000E-002	-1.08427E-003	10	..........a	-327.74
	2449	24.5	-5.20189E-002	3.87796E-005	0.00000E+000	-5.10000E-002	-1.10094E-003	10	..........a	-327.74
	2480	24.81	-2.10389E-002	3.45771E-005	0.00000E+000	-2.00000E-002	-1.10427E-003	10	..........a	-327.74
	2511	25.12	1.00386E-002	3.41761E-005	0.00000E+000	1.10000E-002	-1.09427E-003	10	..........a	-327.74
	2542	25.43	4.11511E-002	3.39588E-005	0.00000E+000	4.20000E-002	-1.10261E-003	10	..........a	-327.74
	2573	25.74	7.19811E-002	3.26471E-005	0.00000E+000	7.30000E-002	-1.10927E-003	10	..........a	-327.74
	2604	26.05	1.02944E-001	2.92466E-005	0.00000E+000	1.04000E-001	-1.10761E-003	10	..........a	-327.74
	2635	26.36	1.34018E-001	2.63141E-005	0.00000E+000	1.35000E-001	-1.10927E-003	10	..........a	-327.74
	2666	26.67	1.64958E-001	2.61219E-005	0.00000E+000	1.66000E-001	-1.10427E-003	10	..........a	-327.74
	2697	26.98	1.95780E-001	2.55872E-005	0.00000E+000	1.97000E-001	-1.09761E-003	10	..........a	-327.74
	2728	27.29	2.26921E-001	2.40666E-005	0.00000E+000	2.28000E-001	-1.11094E-003	10	..........a	-327.74
	2759	27.6	2.57880E-001	2.26212E-005	0.00000E+000	2.59000E-001	-1.13261E-003	10	..........a	-327.74
	2790	27.91	2.88888E-001	2.06494E-005	0.00000E+000	2.90000E-001	-1.11594E-003	10	..........a	-327.74
	2821	28.22	3.19849E-001	1.95549E-005	0.00000E+000	3.21000E-001	-1.11261E-003	10	..........a	-327.74
	2852	28.53	3.50875E-001	1.91956E-005	0.00000E+000	3.52000E-001	-1.12261E-003	10	..........a	-327.74
	2883	28.84	3.81921E-001	1.86860E-005	0.00000E+000	3.83000E-001	-1.11094E-003	10	..........a	-327.74
	2914	29.15	4.12834E-001	1.81763E-005	0.00000E+000	4.14000E-001	-1.10927E-003	10	..........a	-327.74
	2945	29.46	4.43795E-001	1.81680E-005	0.00000E+000	4.45000E-001	-1.11094E-003	10	..........a	-327.74
	2976	29.77	4.74909E-001	1.80092E-005	0.00000E+000	4.76000E-001	-1.10261E-003	10	..........a	-327.74
	3000	30.01	4.98832E-001	1.78338E-005	0.00000E+000	5.00000E-001	-1.11594E-003	10	..........a	-327.74
CURVE2	TABLE
	Pt	T	Vf	Im	Vu	Sig	Ach	IERange	Over	Temp
	#	s	V vs. Ref.	A	V	V	V	#	bits	deg C
	3001	30.02	4.98839E-001	1.76583E-005	0.00000E+000	5.00000E-001	-1.12761E-003	10	..........a	-327.74