Folder: 2024-09-QuCO2-NCE/data/02-SI/Figures_S9_S11_RDE/14btmapaq-rde (part 8)

File: 1mkcl-5mmolar14btmapaq-nitrogen-6000mvpers.DTA
EXPLAIN
TAG	CV
TITLE	LABEL	Cyclic Voltammetry	Test &Identifier
DATE	LABEL	1/31/2023	Date
TIME	LABEL	14:06:01	Time
NOTES	NOTES	1	&Notes...

PSTAT	PSTAT	REF3000-21108	Potentiostat
VINIT	POTEN	5.00000E-001	F	Initial &E (V)
VLIMIT1	POTEN	-1.00000E+000	F	Scan Limit &1 (V)
VLIMIT2	POTEN	5.00000E-001	F	Scan Limit &2 (V)
VFINAL	POTEN	5.00000E-001	F	Final &E (V)
SCANRATE	QUANT	5.99999E+003	&Scan Rate (mV/s)
STEPSIZE	QUANT	1.00000E+000	St&ep Size (mV)
CYCLES	IQUANT	1	C&ycles (#)
IMODE	SELECTOR	1	I/E Range &Mode
IRANGE	QUANT	1.00000E+001	&Max Current (mA)
AREA	QUANT	1.00000E+000	Electrode &Area (cm^2)
ELECTRODETYPE	SELECTOR	0	Electrode Type
STRIPPING	TOGGLE	F	Used for Stripping
POLARITY	TOGGLE	F	Signal Polarity
CONDIT	TWOPARAM	F	1.50000E+001	0.00000E+000	Conditionin&g	Time(s)	E(V)
DELAY	TWOPARAM	F	5.00000E+000	0.00000E+000	Init. De&lay	Time(s)	Stab.(mV/s)
EQDELAY	QUANT	0.00000E+000	Equil. &Time (s)
IRCOMP	SELECTOR	0	IRCom&p
PFCOR	QUANT	5.00000E+001	PF Corr. (ohm)
SAMPLINGMODE	SELECTOR	1	Sampling &Mode
EOC	QUANT	0	Open Circuit (V)
PSTATMODEL	IQUANT	5	Pstat Model
PSTATSECTION	LABEL	REF3000-21108	Pstat Section
PSTATSERIALNO	LABEL	21108	Pstat Serial Number
CTRLMODE	IQUANT	1	Control Mode
ELECTROMETER	IQUANT	0	RE=0 or CS=1
IESTAB	IQUANT	2	I/E Stability
CASPEED	IQUANT	4	Control Amp Speed
CONVENTION	IQUANT	1	Current Convention
ICHRANGE	IQUANT	2	Ich Range
ICHRANGEMODE	TOGGLE	F	Ich Auto Range
ICHOFFSETENABLE	TOGGLE	F	Ich Offset Enable
ICHOFFSET	QUANT	0	Ich Offset (V)
ICHFILTER	IQUANT	1	Ich Filter
VCHRANGE	IQUANT	2	Vch Range
VCHRANGEMODE	TOGGLE	F	Vch Auto Range
VCHOFFSETENABLE	TOGGLE	F	Vch Offset Enable
VCHOFFSET	QUANT	0	Vch Offset (V)
VCHFILTER	IQUANT	1	Vch Filter
ACHRANGE	IQUANT	2	Ach Range
ACHOFFSETENABLE	TOGGLE	F	Ach Offset Enable
ACHOFFSET	QUANT	0	Ach Offset (V)
ACHFILTER	IQUANT	0	Ach Filter
IERANGELOWERLIMIT	IQUANT	2	I/E Range Lower Limit
IERANGEMODE	TOGGLE	F	I/E AutoRange
IERANGE	IQUANT	10	I/E Range
POSFEEDENABLE	TOGGLE	F	Positive Feedback IR Comp
POSFEEDRESISTANCE	QUANT	0	Positive Feedback Resistance (ohm)
ACHSELECT	IQUANT	0	Ach Select
SENSECABLEID	IQUANT	14	Sense Cable ID
PWRCABLEID	IQUANT	7	Power Cable ID
DCCALDATE	LABEL	11/9/2022	DC Calibration Date
ACCALDATE	LABEL	11/9/2022	AC Calibration Date
THERMOSELECT	IQUANT	1	Thermo Select
FRAMEWORKVERSION	LABEL	7.8.2	Framework Version
INSTRUMENTVERSION	LABEL	4.40	Instrument Version
COMPLIANCEVOLTAGE	IQUANT	0	Compliance Voltage
CURVE1	TABLE
	Pt	T	Vf	Im	Vu	Sig	Ach	IERange	Over	Temp
	#	s	V vs. Ref.	A	V	V	V	#	bits	deg C
	0	0.000167	4.98691E-001	3.66432E-005	0.00000E+000	5.00000E-001	-8.29272E-004	10	..........a	-327.74
	32	0.0055	4.66791E-001	-7.31409E-005	0.00000E+000	4.68000E-001	-7.29272E-004	10	..........a	-327.74
	64	0.010833	4.34891E-001	-8.16629E-005	0.00000E+000	4.36000E-001	-7.29272E-004	10	..........a	-327.74
	96	0.016167	4.02691E-001	-9.16889E-005	0.00000E+000	4.04000E-001	-9.29272E-004	10	..........a	-327.74
	128	0.0215	3.70641E-001	-1.03720E-004	0.00000E+000	3.72000E-001	-6.29272E-004	10	..........a	-327.74
	160	0.026833	3.38691E-001	-1.09234E-004	0.00000E+000	3.40000E-001	-7.29272E-004	10	..........a	-327.74
	192	0.032167	3.06691E-001	-1.19260E-004	0.00000E+000	3.08000E-001	-8.29272E-004	10	..........a	-327.74
	224	0.0375	2.74791E-001	-1.22769E-004	0.00000E+000	2.76000E-001	-7.29272E-004	10	..........a	-327.74
	256	0.042833	2.42791E-001	-1.31291E-004	0.00000E+000	2.44000E-001	-9.29272E-004	10	..........a	-327.74
	288	0.048167	2.10741E-001	-1.37307E-004	0.00000E+000	2.12000E-001	-8.29272E-004	10	..........a	-327.74
	320	0.0535	1.79041E-001	-1.39312E-004	0.00000E+000	1.80000E-001	-8.29272E-004	10	..........a	-327.74
	352	0.058833	1.46841E-001	-1.46832E-004	0.00000E+000	1.48000E-001	-7.29272E-004	10	..........a	-327.74
	384	0.064167	1.14741E-001	-1.51845E-004	0.00000E+000	1.16000E-001	-8.29272E-004	10	..........a	-327.74
	416	0.0695	8.27910E-002	-1.50842E-004	0.00000E+000	8.40000E-002	-7.29272E-004	10	..........a	-327.74
	448	0.074833	5.08410E-002	-1.50842E-004	0.00000E+000	5.20000E-002	-8.29272E-004	10	..........a	-327.74
	480	0.080167	1.88410E-002	-1.53850E-004	0.00000E+000	2.00000E-002	-7.29272E-004	10	..........a	-327.74
	512	0.0855	-1.32590E-002	-1.51845E-004	0.00000E+000	-1.20000E-002	-8.29272E-004	10	..........a	-327.74
	544	0.090833	-4.50590E-002	-1.50341E-004	0.00000E+000	-4.40000E-002	-7.29272E-004	10	..........a	-327.74
	576	0.096167	-7.71590E-002	-1.50341E-004	0.00000E+000	-7.60000E-002	-8.29272E-004	10	..........a	-327.74
	608	0.1015	-1.09209E-001	-1.50842E-004	0.00000E+000	-1.08000E-001	-8.29272E-004	10	..........a	-327.74
	640	0.106833	-1.41059E-001	-1.48837E-004	0.00000E+000	-1.40000E-001	-9.29272E-004	10	..........a	-327.74
	672	0.112167	-1.73059E-001	-1.47333E-004	0.00000E+000	-1.72000E-001	-8.29272E-004	10	..........a	-327.74
	704	0.1175	-2.05059E-001	-1.46832E-004	0.00000E+000	-2.04000E-001	-6.29272E-004	10	..........a	-327.74
	736	0.122833	-2.36909E-001	-1.47333E-004	0.00000E+000	-2.36000E-001	-8.29272E-004	10	..........a	-327.74
	768	0.128167	-2.69009E-001	-1.51845E-004	0.00000E+000	-2.68000E-001	-7.29272E-004	10	..........a	-327.74
	800	0.1335	-3.00959E-001	-1.59364E-004	0.00000E+000	-3.00000E-001	-9.29272E-004	10	..........a	-327.74
	832	0.138833	-3.33009E-001	-1.71395E-004	0.00000E+000	-3.32000E-001	-7.29272E-004	10	..........a	-327.74
	864	0.144167	-3.65059E-001	-1.97964E-004	0.00000E+000	-3.64000E-001	-7.29272E-004	10	..........a	-327.74
	896	0.1495	-3.97059E-001	-2.37065E-004	0.00000E+000	-3.96000E-001	-7.29272E-004	10	..........a	-327.74
	928	0.154833	-4.28859E-001	-3.17272E-004	0.00000E+000	-4.28000E-001	-7.29272E-004	10	..........a	-327.74
	960	0.160167	-4.60959E-001	-5.13280E-004	0.00000E+000	-4.60000E-001	-7.29272E-004	10	..........a	-327.74
	992	0.1655	-4.92809E-001	-8.34611E-004	0.00000E+000	-4.92000E-001	-9.29272E-004	10	..........a	-327.74
	1024	0.170833	-5.24809E-001	-1.26222E-003	0.00000E+000	-5.24000E-001	-6.29272E-004	10	..........a	-327.74
	1056	0.176167	-5.56859E-001	-1.88683E-003	0.00000E+000	-5.56000E-001	-7.29272E-004	10	..........a	-327.74
	1088	0.1815	-5.88859E-001	-2.57712E-003	0.00000E+000	-5.88000E-001	-6.29272E-004	10	..........a	-327.74
	1120	0.186833	-6.20959E-001	-2.93304E-003	0.00000E+000	-6.20000E-001	-8.29272E-004	10	..........a	-327.74
	1152	0.192167	-6.52909E-001	-2.72751E-003	0.00000E+000	-6.52000E-001	-8.29272E-004	10	..........a	-327.74
	1184	0.1975	-6.84759E-001	-2.36758E-003	0.00000E+000	-6.84000E-001	-7.29272E-004	10	..........a	-327.74
	1216	0.202833	-7.16809E-001	-2.11392E-003	0.00000E+000	-7.16000E-001	-7.29272E-004	10	..........a	-327.74
	1248	0.208167	-7.48809E-001	-1.90488E-003	0.00000E+000	-7.48000E-001	-7.29272E-004	10	..........a	-327.74
	1280	0.2135	-7.80759E-001	-1.71539E-003	0.00000E+000	-7.80000E-001	-6.29272E-004	10	..........a	-327.74
	1312	0.218833	-8.12809E-001	-1.56400E-003	0.00000E+000	-8.12000E-001	-9.29272E-004	10	..........a	-327.74
	1344	0.224167	-8.44759E-001	-1.43416E-003	0.00000E+000	-8.44000E-001	-7.29272E-004	10	..........a	-327.74
	1376	0.2295	-8.76759E-001	-1.32388E-003	0.00000E+000	-8.76000E-001	-8.29272E-004	10	..........a	-327.74
	1408	0.234833	-9.08659E-001	-1.23866E-003	0.00000E+000	-9.08000E-001	-6.29272E-004	10	..........a	-327.74
	1440	0.240167	-9.40709E-001	-1.16597E-003	0.00000E+000	-9.40000E-001	-8.29272E-004	10	..........a	-327.74
[...]
	1984	0.330833	-5.16759E-001	9.59030E-004	0.00000E+000	-5.16000E-001	-8.29272E-004	10	..........a	-327.74
	2016	0.336167	-4.84759E-001	1.28588E-003	0.00000E+000	-4.84000E-001	-8.29272E-004	10	..........a	-327.74
	2048	0.3415	-4.52959E-001	1.42574E-003	0.00000E+000	-4.52000E-001	-9.29272E-004	10	..........a	-327.74
	2080	0.346833	-4.21059E-001	1.37912E-003	0.00000E+000	-4.20000E-001	-6.29272E-004	10	..........a	-327.74
	2112	0.352167	-3.88959E-001	1.26382E-003	0.00000E+000	-3.88000E-001	-9.29272E-004	10	..........a	-327.74
	2144	0.3575	-3.57109E-001	1.17058E-003	0.00000E+000	-3.56000E-001	-8.29272E-004	10	..........a	-327.74
	2176	0.362833	-3.25009E-001	1.10040E-003	0.00000E+000	-3.24000E-001	-8.29272E-004	10	..........a	-327.74
	2208	0.368167	-2.92959E-001	1.04275E-003	0.00000E+000	-2.92000E-001	-8.29272E-004	10	..........a	-327.74
	2240	0.3735	-2.60959E-001	9.83593E-004	0.00000E+000	-2.60000E-001	-9.29272E-004	10	..........a	-327.74
	2272	0.378833	-2.28909E-001	9.21432E-004	0.00000E+000	-2.28000E-001	-9.29272E-004	10	..........a	-327.74
	2304	0.384167	-1.96959E-001	8.45736E-004	0.00000E+000	-1.96000E-001	-6.29272E-004	10	..........a	-327.74
	2336	0.3895	-1.65209E-001	7.86082E-004	0.00000E+000	-1.64000E-001	-8.29272E-004	10	..........a	-327.74
	2368	0.394833	-1.33109E-001	7.26428E-004	0.00000E+000	-1.32000E-001	-7.29272E-004	10	..........a	-327.74
	2400	0.400167	-1.01059E-001	6.79807E-004	0.00000E+000	-1.00000E-001	-8.29272E-004	10	..........a	-327.74
	2432	0.4055	-6.90590E-002	6.51735E-004	0.00000E+000	-6.80000E-002	-8.29272E-004	10	..........a	-327.74
	2464	0.410833	-3.70590E-002	6.37197E-004	0.00000E+000	-3.60000E-002	-8.29272E-004	10	..........a	-327.74
	2496	0.416167	-5.10900E-003	6.39202E-004	0.00000E+000	-4.00001E-003	-8.29272E-004	10	..........a	-327.74
	2528	0.4215	2.68410E-002	6.58251E-004	0.00000E+000	2.80000E-002	-8.29272E-004	10	..........a	-327.74
	2560	0.426833	5.87910E-002	6.88831E-004	0.00000E+000	6.00000E-002	-8.29272E-004	10	..........a	-327.74
	2592	0.432167	9.10410E-002	7.17405E-004	0.00000E+000	9.20000E-002	-8.29272E-004	10	..........a	-327.74
	2624	0.4375	1.22791E-001	7.38960E-004	0.00000E+000	1.24000E-001	-7.29272E-004	10	..........a	-327.74
	2656	0.442833	1.54791E-001	7.18908E-004	0.00000E+000	1.56000E-001	-8.29272E-004	10	..........a	-327.74
	2688	0.448167	1.86891E-001	6.69280E-004	0.00000E+000	1.88000E-001	-8.29272E-004	10	..........a	-327.74
	2720	0.4535	2.18891E-001	6.07620E-004	0.00000E+000	2.20000E-001	-8.29272E-004	10	..........a	-327.74
	2752	0.458833	2.50841E-001	5.55987E-004	0.00000E+000	2.52000E-001	-6.29272E-004	10	..........a	-327.74
	2784	0.464167	2.82891E-001	5.13377E-004	0.00000E+000	2.84000E-001	-8.29272E-004	10	..........a	-327.74
	2816	0.4695	3.14841E-001	4.74777E-004	0.00000E+000	3.16000E-001	-8.29272E-004	10	..........a	-327.74
	2848	0.474833	3.46791E-001	4.58234E-004	0.00000E+000	3.48000E-001	-8.29272E-004	10	..........a	-327.74
	2880	0.480167	3.78691E-001	4.37179E-004	0.00000E+000	3.80000E-001	-8.29272E-004	10	..........a	-327.74
	2912	0.4855	4.10791E-001	4.36177E-004	0.00000E+000	4.12000E-001	-1.02927E-003	10	..........a	-327.74
	2944	0.490833	4.42791E-001	4.32668E-004	0.00000E+000	4.44000E-001	-8.29272E-004	10	..........a	-327.74
	2976	0.496167	4.74891E-001	4.20637E-004	0.00000E+000	4.76000E-001	-8.29272E-004	10	..........a	-327.74
	3000	0.500167	4.98791E-001	4.16125E-004	0.00000E+000	5.00000E-001	-8.29272E-004	10	..........a	-327.74
CURVE2	TABLE
	Pt	T	Vf	Im	Vu	Sig	Ach	IERange	Over	Temp
	#	s	V vs. Ref.	A	V	V	V	#	bits	deg C
	3001	0.500333	4.98791E-001	3.65995E-004	0.00000E+000	5.00000E-001	-9.29272E-004	10	..........a	-327.74

File: 1mkcl-5mmolar14btmapaq-nitrogen-7000mvpers.DTA
EXPLAIN
TAG	CV
TITLE	LABEL	Cyclic Voltammetry	Test &Identifier
DATE	LABEL	1/31/2023	Date
TIME	LABEL	14:06:11	Time
NOTES	NOTES	1	&Notes...

PSTAT	PSTAT	REF3000-21108	Potentiostat
VINIT	POTEN	5.00000E-001	F	Initial &E (V)
VLIMIT1	POTEN	-1.00000E+000	F	Scan Limit &1 (V)
VLIMIT2	POTEN	5.00000E-001	F	Scan Limit &2 (V)
VFINAL	POTEN	5.00000E-001	F	Final &E (V)
SCANRATE	QUANT	6.66665E+003	&Scan Rate (mV/s)
STEPSIZE	QUANT	1.00000E+000	St&ep Size (mV)
CYCLES	IQUANT	1	C&ycles (#)
IMODE	SELECTOR	1	I/E Range &Mode
IRANGE	QUANT	1.00000E+001	&Max Current (mA)
AREA	QUANT	1.00000E+000	Electrode &Area (cm^2)
ELECTRODETYPE	SELECTOR	0	Electrode Type
STRIPPING	TOGGLE	F	Used for Stripping
POLARITY	TOGGLE	F	Signal Polarity
CONDIT	TWOPARAM	F	1.50000E+001	0.00000E+000	Conditionin&g	Time(s)	E(V)
DELAY	TWOPARAM	F	5.00000E+000	0.00000E+000	Init. De&lay	Time(s)	Stab.(mV/s)
EQDELAY	QUANT	0.00000E+000	Equil. &Time (s)
IRCOMP	SELECTOR	0	IRCom&p
PFCOR	QUANT	5.00000E+001	PF Corr. (ohm)
SAMPLINGMODE	SELECTOR	1	Sampling &Mode
EOC	QUANT	0	Open Circuit (V)
PSTATMODEL	IQUANT	5	Pstat Model
PSTATSECTION	LABEL	REF3000-21108	Pstat Section
PSTATSERIALNO	LABEL	21108	Pstat Serial Number
CTRLMODE	IQUANT	1	Control Mode
ELECTROMETER	IQUANT	0	RE=0 or CS=1
IESTAB	IQUANT	2	I/E Stability
CASPEED	IQUANT	4	Control Amp Speed
CONVENTION	IQUANT	1	Current Convention
ICHRANGE	IQUANT	2	Ich Range
ICHRANGEMODE	TOGGLE	F	Ich Auto Range
ICHOFFSETENABLE	TOGGLE	F	Ich Offset Enable
ICHOFFSET	QUANT	0	Ich Offset (V)
ICHFILTER	IQUANT	1	Ich Filter
VCHRANGE	IQUANT	2	Vch Range
VCHRANGEMODE	TOGGLE	F	Vch Auto Range
VCHOFFSETENABLE	TOGGLE	F	Vch Offset Enable
VCHOFFSET	QUANT	0	Vch Offset (V)
VCHFILTER	IQUANT	1	Vch Filter
ACHRANGE	IQUANT	2	Ach Range
ACHOFFSETENABLE	TOGGLE	F	Ach Offset Enable
ACHOFFSET	QUANT	0	Ach Offset (V)
ACHFILTER	IQUANT	0	Ach Filter
IERANGELOWERLIMIT	IQUANT	2	I/E Range Lower Limit
IERANGEMODE	TOGGLE	F	I/E AutoRange
IERANGE	IQUANT	10	I/E Range
POSFEEDENABLE	TOGGLE	F	Positive Feedback IR Comp
POSFEEDRESISTANCE	QUANT	0	Positive Feedback Resistance (ohm)
ACHSELECT	IQUANT	0	Ach Select
SENSECABLEID	IQUANT	14	Sense Cable ID
PWRCABLEID	IQUANT	7	Power Cable ID
DCCALDATE	LABEL	11/9/2022	DC Calibration Date
ACCALDATE	LABEL	11/9/2022	AC Calibration Date
THERMOSELECT	IQUANT	1	Thermo Select
FRAMEWORKVERSION	LABEL	7.8.2	Framework Version
INSTRUMENTVERSION	LABEL	4.40	Instrument Version
COMPLIANCEVOLTAGE	IQUANT	0	Compliance Voltage
CURVE1	TABLE
	Pt	T	Vf	Im	Vu	Sig	Ach	IERange	Over	Temp
	#	s	V vs. Ref.	A	V	V	V	#	bits	deg C
	0	0.00015	4.98591E-001	2.31082E-005	0.00000E+000	5.00000E-001	-8.29272E-004	10	...........	-0.07
	30	0.00465	4.66891E-001	-9.31927E-005	0.00000E+000	4.68500E-001	-7.29272E-004	10	...........	-0.07
	60	0.00915	4.35591E-001	-1.12242E-004	0.00000E+000	4.37000E-001	-7.29272E-004	10	...........	-0.07
	90	0.01365	4.03991E-001	-1.18258E-004	0.00000E+000	4.05500E-001	-7.29272E-004	10	...........	-0.07
	120	0.01815	3.72991E-001	-1.27281E-004	0.00000E+000	3.74000E-001	-8.29272E-004	10	...........	-0.07
	150	0.02265	3.41291E-001	-1.38309E-004	0.00000E+000	3.42500E-001	-7.29272E-004	10	...........	-0.07
	180	0.02715	3.09591E-001	-1.45328E-004	0.00000E+000	3.11000E-001	-7.29272E-004	10	...........	-0.07
	210	0.03165	2.78091E-001	-1.50341E-004	0.00000E+000	2.79500E-001	-6.29272E-004	10	...........	-0.07
	240	0.03615	2.46691E-001	-1.60367E-004	0.00000E+000	2.48000E-001	-6.29272E-004	10	...........	-0.07
	270	0.04065	2.15191E-001	-1.69390E-004	0.00000E+000	2.16500E-001	-8.29272E-004	10	...........	-0.07
	300	0.04515	1.83591E-001	-1.73400E-004	0.00000E+000	1.85000E-001	-7.29272E-004	10	...........	-0.07
	330	0.04965	1.52191E-001	-1.80418E-004	0.00000E+000	1.53500E-001	-7.29272E-004	10	...........	-0.07
	360	0.05415	1.20791E-001	-1.85431E-004	0.00000E+000	1.22000E-001	-6.29272E-004	10	...........	-0.07
	390	0.05865	8.91910E-002	-1.89442E-004	0.00000E+000	9.05000E-002	-7.29272E-004	10	...........	-0.07
	420	0.06315	5.77910E-002	-1.86434E-004	0.00000E+000	5.90000E-002	-8.29272E-004	10	...........	-0.07
	450	0.06765	2.60910E-002	-1.89442E-004	0.00000E+000	2.75000E-002	-6.29272E-004	10	...........	-0.07
	480	0.07215	-5.20900E-003	-1.87437E-004	0.00000E+000	-4.00001E-003	-7.29272E-004	10	...........	-0.07
	510	0.07665	-3.66090E-002	-1.85431E-004	0.00000E+000	-3.55000E-002	-7.29272E-004	10	...........	-0.07
	540	0.08115	-6.83090E-002	-1.88439E-004	0.00000E+000	-6.70000E-002	-7.29272E-004	10	...........	-0.07
	570	0.08565	-9.96090E-002	-1.82424E-004	0.00000E+000	-9.85000E-002	-7.29272E-004	10	...........	-0.07
	600	0.09015	-1.31009E-001	-1.82424E-004	0.00000E+000	-1.30000E-001	-6.29272E-004	10	...........	-0.07
	630	0.09465	-1.62609E-001	-1.82424E-004	0.00000E+000	-1.61500E-001	-7.29272E-004	10	...........	-0.07
	660	0.09915	-1.94209E-001	-1.81421E-004	0.00000E+000	-1.93000E-001	-7.29272E-004	10	...........	-0.07
	690	0.10365	-2.25609E-001	-1.84429E-004	0.00000E+000	-2.24500E-001	-8.29272E-004	10	...........	-0.07
	720	0.10815	-2.57209E-001	-1.86434E-004	0.00000E+000	-2.56000E-001	-6.29272E-004	10	...........	-0.07
	750	0.11265	-2.88509E-001	-1.92450E-004	0.00000E+000	-2.87500E-001	-8.29272E-004	10	...........	-0.07
	780	0.11715	-3.20209E-001	-2.08491E-004	0.00000E+000	-3.19000E-001	-8.29272E-004	10	...........	-0.07
	810	0.12165	-3.51609E-001	-2.27540E-004	0.00000E+000	-3.50500E-001	-6.29272E-004	10	...........	-0.07
	840	0.12615	-3.83009E-001	-2.54610E-004	0.00000E+000	-3.82000E-001	-7.29272E-004	10	...........	-0.07
	870	0.13065	-4.14409E-001	-3.14766E-004	0.00000E+000	-4.13500E-001	-7.29272E-004	10	...........	-0.07
	900	0.13515	-4.45909E-001	-4.57134E-004	0.00000E+000	-4.45000E-001	-7.29272E-004	10	...........	-0.07
	930	0.13965	-4.77209E-001	-7.32848E-004	0.00000E+000	-4.76500E-001	-6.29272E-004	10	...........	-0.07
	960	0.14415	-5.09009E-001	-1.11584E-003	0.00000E+000	-5.08000E-001	-7.29272E-004	10	...........	-0.07
	990	0.14865	-5.40409E-001	-1.64421E-003	0.00000E+000	-5.39500E-001	-7.29272E-004	10	...........	-0.07
	1020	0.15315	-5.72309E-001	-2.37610E-003	0.00000E+000	-5.71000E-001	-8.29272E-004	10	...........	-0.07
	1050	0.15765	-6.03409E-001	-3.03480E-003	0.00000E+000	-6.02500E-001	-7.29272E-004	10	...........	-0.07
	1080	0.16215	-6.35009E-001	-3.21728E-003	0.00000E+000	-6.34000E-001	-7.29272E-004	10	...........	-0.07
	1110	0.16665	-6.66409E-001	-2.89043E-003	0.00000E+000	-6.65500E-001	-7.29272E-004	10	...........	-0.07
	1140	0.17115	-6.98009E-001	-2.54353E-003	0.00000E+000	-6.97000E-001	-6.29272E-004	10	...........	-0.07
	1170	0.17565	-7.29409E-001	-2.29489E-003	0.00000E+000	-7.28500E-001	-7.29272E-004	10	...........	-0.07
	1200	0.18015	-7.60909E-001	-2.07432E-003	0.00000E+000	-7.60000E-001	-7.29272E-004	10	...........	-0.07
	1230	0.18465	-7.92409E-001	-1.87982E-003	0.00000E+000	-7.91500E-001	-6.29272E-004	10	...........	-0.07
	1260	0.18915	-8.23809E-001	-1.70937E-003	0.00000E+000	-8.23000E-001	-6.29272E-004	10	...........	-0.07
	1290	0.19365	-8.55209E-001	-1.58204E-003	0.00000E+000	-8.54500E-001	-7.29272E-004	10	...........	-0.07
	1320	0.19815	-8.86809E-001	-1.45973E-003	0.00000E+000	-8.86000E-001	-7.29272E-004	10	...........	-0.07
	1350	0.20265	-9.18209E-001	-1.36448E-003	0.00000E+000	-9.17500E-001	-7.29272E-004	10	...........	-0.07
	1380	0.20715	-9.49809E-001	-1.29731E-003	0.00000E+000	-9.49000E-001	-8.29272E-004	10	...........	-0.07
[...]
	1890	0.28365	-5.17209E-001	1.01969E-003	0.00000E+000	-5.16400E-001	-8.29272E-004	10	...........	-0.07
	1920	0.28815	-4.86009E-001	1.35856E-003	0.00000E+000	-4.84900E-001	-6.29272E-004	10	...........	-0.07
	1950	0.29265	-4.54309E-001	1.54204E-003	0.00000E+000	-4.53400E-001	-8.29272E-004	10	...........	-0.07
	1980	0.29715	-4.23009E-001	1.50996E-003	0.00000E+000	-4.21900E-001	-8.29272E-004	10	...........	-0.07
	2010	0.30165	-3.91509E-001	1.40167E-003	0.00000E+000	-3.90400E-001	-8.29272E-004	10	...........	-0.07
	2040	0.30615	-3.59809E-001	1.30342E-003	0.00000E+000	-3.58900E-001	-8.29272E-004	10	...........	-0.07
	2070	0.31065	-3.28409E-001	1.22923E-003	0.00000E+000	-3.27400E-001	-8.29272E-004	10	...........	-0.07
	2100	0.31515	-2.96909E-001	1.16506E-003	0.00000E+000	-2.95900E-001	-6.29272E-004	10	...........	-0.07
	2130	0.31965	-2.65409E-001	1.10491E-003	0.00000E+000	-2.64400E-001	-8.29272E-004	10	...........	-0.07
	2160	0.32415	-2.33909E-001	1.03573E-003	0.00000E+000	-2.32900E-001	-8.29272E-004	10	...........	-0.07
	2190	0.32865	-2.02409E-001	9.59531E-004	0.00000E+000	-2.01400E-001	-6.29272E-004	10	...........	-0.07
	2220	0.33315	-1.71009E-001	8.88347E-004	0.00000E+000	-1.69900E-001	-6.29272E-004	10	...........	-0.07
	2250	0.33765	-1.39509E-001	8.22176E-004	0.00000E+000	-1.38400E-001	-8.29272E-004	10	...........	-0.07
	2280	0.34215	-1.07809E-001	7.69038E-004	0.00000E+000	-1.06900E-001	-8.29272E-004	10	...........	-0.07
	2310	0.34665	-7.64090E-002	7.33947E-004	0.00000E+000	-7.54000E-002	-9.29272E-004	10	...........	-0.07
	2340	0.35115	-4.50090E-002	7.10888E-004	0.00000E+000	-4.39000E-002	-6.29272E-004	10	...........	-0.07
	2370	0.35565	-1.35090E-002	7.05875E-004	0.00000E+000	-1.24000E-002	-8.29272E-004	10	...........	-0.07
	2400	0.36015	1.79910E-002	7.26929E-004	0.00000E+000	1.91000E-002	-8.29272E-004	10	...........	-0.07
	2430	0.36465	4.97910E-002	7.53999E-004	0.00000E+000	5.06000E-002	-7.29272E-004	10	...........	-0.07
	2460	0.36915	8.08910E-002	7.92098E-004	0.00000E+000	8.21000E-002	-7.29272E-004	10	...........	-0.07
	2490	0.37365	1.12591E-001	8.27188E-004	0.00000E+000	1.13600E-001	-6.29272E-004	10	...........	-0.07
	2520	0.37815	1.43891E-001	8.38217E-004	0.00000E+000	1.45100E-001	-8.29272E-004	10	...........	-0.07
	2550	0.38265	1.75591E-001	7.96108E-004	0.00000E+000	1.76600E-001	-8.29272E-004	10	...........	-0.07
	2580	0.38715	2.06991E-001	7.23921E-004	0.00000E+000	2.08100E-001	-6.29272E-004	10	...........	-0.07
	2610	0.39165	2.38291E-001	6.57750E-004	0.00000E+000	2.39600E-001	-8.29272E-004	10	...........	-0.07
	2640	0.39615	2.69891E-001	6.03610E-004	0.00000E+000	2.71100E-001	-7.29272E-004	10	...........	-0.07
	2670	0.40065	3.01191E-001	5.54483E-004	0.00000E+000	3.02600E-001	-6.29272E-004	10	...........	-0.07
	2700	0.40515	3.32991E-001	5.26410E-004	0.00000E+000	3.34100E-001	-8.29272E-004	10	...........	-0.07
	2730	0.40965	3.64191E-001	5.00343E-004	0.00000E+000	3.65600E-001	-9.29272E-004	10	...........	-0.07
	2760	0.41415	3.95691E-001	4.86307E-004	0.00000E+000	3.97100E-001	-8.29272E-004	10	...........	-0.07
	2790	0.41865	4.27391E-001	4.82296E-004	0.00000E+000	4.28600E-001	-8.29272E-004	10	...........	-0.07
	2820	0.42315	4.58691E-001	4.73273E-004	0.00000E+000	4.60100E-001	-9.29272E-004	10	...........	-0.07
	2850	0.42765	4.90191E-001	4.68260E-004	0.00000E+000	4.91600E-001	-7.29272E-004	10	...........	-0.07
	2858	0.42885	4.98591E-001	4.60239E-004	0.00000E+000	5.00000E-001	-9.29272E-004	10	...........	-0.07
CURVE2	TABLE
	Pt	T	Vf	Im	Vu	Sig	Ach	IERange	Over	Temp
	#	s	V vs. Ref.	A	V	V	V	#	bits	deg C
	2859	0.429	4.98691E-001	4.13117E-004	0.00000E+000	5.00000E-001	-8.29272E-004	10	...........	-0.07