Folder: 2024-09-QuCO2-NCE/data/02-SI/Figures_S9_S11_RDE/14btmapaq-rde (part 2)

File: 1mkcl-5mmolar14btmapaq-nitrogen-200mvpers.DTA
EXPLAIN
TAG	CV
TITLE	LABEL	Cyclic Voltammetry	Test &Identifier
DATE	LABEL	1/31/2023	Date
TIME	LABEL	14:02:00	Time
NOTES	NOTES	1	&Notes...

PSTAT	PSTAT	REF3000-21108	Potentiostat
VINIT	POTEN	5.00000E-001	F	Initial &E (V)
VLIMIT1	POTEN	-1.00000E+000	F	Scan Limit &1 (V)
VLIMIT2	POTEN	5.00000E-001	F	Scan Limit &2 (V)
VFINAL	POTEN	5.00000E-001	F	Final &E (V)
SCANRATE	QUANT	2.00000E+002	&Scan Rate (mV/s)
STEPSIZE	QUANT	1.00000E+000	St&ep Size (mV)
CYCLES	IQUANT	1	C&ycles (#)
IMODE	SELECTOR	1	I/E Range &Mode
IRANGE	QUANT	1.00000E+001	&Max Current (mA)
AREA	QUANT	1.00000E+000	Electrode &Area (cm^2)
ELECTRODETYPE	SELECTOR	0	Electrode Type
STRIPPING	TOGGLE	F	Used for Stripping
POLARITY	TOGGLE	F	Signal Polarity
CONDIT	TWOPARAM	F	1.50000E+001	0.00000E+000	Conditionin&g	Time(s)	E(V)
DELAY	TWOPARAM	F	5.00000E+000	0.00000E+000	Init. De&lay	Time(s)	Stab.(mV/s)
EQDELAY	QUANT	0.00000E+000	Equil. &Time (s)
IRCOMP	SELECTOR	0	IRCom&p
PFCOR	QUANT	5.00000E+001	PF Corr. (ohm)
SAMPLINGMODE	SELECTOR	1	Sampling &Mode
EOC	QUANT	0	Open Circuit (V)
PSTATMODEL	IQUANT	5	Pstat Model
PSTATSECTION	LABEL	REF3000-21108	Pstat Section
PSTATSERIALNO	LABEL	21108	Pstat Serial Number
CTRLMODE	IQUANT	1	Control Mode
ELECTROMETER	IQUANT	0	RE=0 or CS=1
IESTAB	IQUANT	2	I/E Stability
CASPEED	IQUANT	4	Control Amp Speed
CONVENTION	IQUANT	1	Current Convention
ICHRANGE	IQUANT	2	Ich Range
ICHRANGEMODE	TOGGLE	F	Ich Auto Range
ICHOFFSETENABLE	TOGGLE	F	Ich Offset Enable
ICHOFFSET	QUANT	0	Ich Offset (V)
ICHFILTER	IQUANT	2	Ich Filter
VCHRANGE	IQUANT	2	Vch Range
VCHRANGEMODE	TOGGLE	F	Vch Auto Range
VCHOFFSETENABLE	TOGGLE	F	Vch Offset Enable
VCHOFFSET	QUANT	0	Vch Offset (V)
VCHFILTER	IQUANT	2	Vch Filter
ACHRANGE	IQUANT	2	Ach Range
ACHOFFSETENABLE	TOGGLE	F	Ach Offset Enable
ACHOFFSET	QUANT	0	Ach Offset (V)
ACHFILTER	IQUANT	0	Ach Filter
IERANGELOWERLIMIT	IQUANT	2	I/E Range Lower Limit
IERANGEMODE	TOGGLE	F	I/E AutoRange
IERANGE	IQUANT	10	I/E Range
POSFEEDENABLE	TOGGLE	F	Positive Feedback IR Comp
POSFEEDRESISTANCE	QUANT	0	Positive Feedback Resistance (ohm)
ACHSELECT	IQUANT	0	Ach Select
SENSECABLEID	IQUANT	14	Sense Cable ID
PWRCABLEID	IQUANT	7	Power Cable ID
DCCALDATE	LABEL	11/9/2022	DC Calibration Date
ACCALDATE	LABEL	11/9/2022	AC Calibration Date
THERMOSELECT	IQUANT	1	Thermo Select
FRAMEWORKVERSION	LABEL	7.8.2	Framework Version
INSTRUMENTVERSION	LABEL	4.40	Instrument Version
COMPLIANCEVOLTAGE	IQUANT	0	Compliance Voltage
CURVE1	TABLE
	Pt	T	Vf	Im	Vu	Sig	Ach	IERange	Over	Temp
	#	s	V vs. Ref.	A	V	V	V	#	bits	deg C
	0	0.005	4.98833E-001	6.57745E-005	0.00000E+000	5.00000E-001	-7.95939E-004	10	..........a	-327.74
	31	0.16	4.67824E-001	2.58880E-005	0.00000E+000	4.69000E-001	-7.99272E-004	10	..........a	-327.74
	62	0.315	4.36814E-001	1.79340E-005	0.00000E+000	4.38000E-001	-7.99272E-004	10	..........a	-327.74
	93	0.47	4.05931E-001	1.40072E-005	0.00000E+000	4.07000E-001	-8.09272E-004	10	..........a	-327.74
	124	0.625	3.74849E-001	1.15342E-005	0.00000E+000	3.76000E-001	-8.22606E-004	10	..........a	-327.74
	155	0.78	3.43889E-001	9.72948E-006	0.00000E+000	3.45000E-001	-7.29272E-004	10	..........a	-327.74
	186	0.935	3.12888E-001	7.62403E-006	0.00000E+000	3.14000E-001	-8.42605E-004	10	..........a	-327.74
	217	1.09	2.81909E-001	6.90551E-006	0.00000E+000	2.83000E-001	-8.52606E-004	10	..........a	-327.74
	248	1.245	2.50903E-001	6.03659E-006	0.00000E+000	2.52000E-001	-7.92605E-004	10	..........a	-327.74
	279	1.4	2.19853E-001	5.18439E-006	0.00000E+000	2.21000E-001	-8.19272E-004	10	..........a	-327.74
	310	1.555	1.88913E-001	4.78335E-006	0.00000E+000	1.90000E-001	-8.05939E-004	10	..........a	-327.74
	341	1.71	1.57971E-001	3.86431E-006	0.00000E+000	1.59000E-001	-8.29272E-004	10	..........a	-327.74
	372	1.865	1.26921E-001	3.31288E-006	0.00000E+000	1.28000E-001	-8.02606E-004	10	..........a	-327.74
	403	2.02	9.60127E-002	2.61106E-006	0.00000E+000	9.70000E-002	-8.42605E-004	10	..........a	-327.74
	434	2.175	6.51177E-002	2.09306E-006	0.00000E+000	6.60000E-002	-8.45939E-004	10	..........a	-327.74
	465	2.33	3.40244E-002	1.70873E-006	0.00000E+000	3.50000E-002	-8.19272E-004	10	..........a	-327.74
	496	2.485	3.03273E-003	1.04033E-006	0.00000E+000	4.00001E-003	-8.12605E-004	10	..........a	-327.74
	527	2.64	-2.79556E-002	2.38258E-007	0.00000E+000	-2.70000E-002	-8.45939E-004	10	..........a	-327.74
	558	2.795	-5.89723E-002	2.38258E-007	0.00000E+000	-5.80000E-002	-8.55939E-004	10	..........a	-327.74
	589	2.95	-8.99689E-002	-6.47367E-007	0.00000E+000	-8.90000E-002	-8.12605E-004	10	..........a	-327.74
	620	3.105	-1.20952E-001	-9.14725E-007	0.00000E+000	-1.20000E-001	-8.49272E-004	10	..........a	-327.74
	651	3.26	-1.51951E-001	-1.33247E-006	0.00000E+000	-1.51000E-001	-8.12605E-004	10	..........a	-327.74
	682	3.415	-1.82867E-001	-1.61654E-006	0.00000E+000	-1.82000E-001	-7.62605E-004	10	..........a	-327.74
	713	3.57	-2.13922E-001	-2.11784E-006	0.00000E+000	-2.13000E-001	-7.92605E-004	10	..........a	-327.74
	744	3.725	-2.44857E-001	-3.03688E-006	0.00000E+000	-2.44000E-001	-7.82606E-004	10	..........a	-327.74
	775	3.88	-2.75884E-001	-4.07290E-006	0.00000E+000	-2.75000E-001	-7.92605E-004	10	..........a	-327.74
	806	4.035	-3.06886E-001	-4.67445E-006	0.00000E+000	-3.06000E-001	-8.02606E-004	10	..........a	-327.74
	837	4.19	-3.37846E-001	-5.71047E-006	0.00000E+000	-3.37000E-001	-7.45939E-004	10	..........a	-327.74
	868	4.345	-3.68829E-001	-8.16682E-006	0.00000E+000	-3.68000E-001	-7.99272E-004	10	..........a	-327.74
	899	4.5	-3.99837E-001	-1.51014E-005	0.00000E+000	-3.99000E-001	-7.72606E-004	10	..........a	-327.74
	930	4.655	-4.30844E-001	-3.62395E-005	0.00000E+000	-4.30000E-001	-8.19272E-004	10	..........a	-327.74
	961	4.81	-4.61841E-001	-8.13395E-005	0.00000E+000	-4.61000E-001	-8.15939E-004	10	..........a	-327.74
	992	4.965	-4.92807E-001	-1.53860E-004	0.00000E+000	-4.92000E-001	-7.89272E-004	10	..........a	-327.74
	1023	5.12	-5.23802E-001	-2.63895E-004	0.00000E+000	-5.23000E-001	-7.45939E-004	10	..........a	-327.74
	1054	5.275	-5.54774E-001	-3.95736E-004	0.00000E+000	-5.54000E-001	-7.95939E-004	10	..........a	-327.74
	1085	5.43	-5.85801E-001	-4.18495E-004	0.00000E+000	-5.85000E-001	-7.72606E-004	10	..........a	-327.74
	1116	5.585	-6.16699E-001	-3.37636E-004	0.00000E+000	-6.16000E-001	-7.79272E-004	10	..........a	-327.74
	1147	5.74	-6.47734E-001	-2.80221E-004	0.00000E+000	-6.47000E-001	-7.52606E-004	10	..........a	-327.74
	1178	5.895	-6.78731E-001	-2.45280E-004	0.00000E+000	-6.78000E-001	-7.49272E-004	10	..........a	-327.74
	1209	6.05	-7.09751E-001	-2.19196E-004	0.00000E+000	-7.09000E-001	-7.72606E-004	10	..........a	-327.74
	1240	6.205	-7.40721E-001	-1.99829E-004	0.00000E+000	-7.40000E-001	-7.69272E-004	10	..........a	-327.74
	1271	6.36	-7.71647E-001	-1.84891E-004	0.00000E+000	-7.71000E-001	-7.75939E-004	10	..........a	-327.74
	1302	6.515	-8.02736E-001	-1.72241E-004	0.00000E+000	-8.02000E-001	-8.02606E-004	10	..........a	-327.74
	1333	6.67	-8.33601E-001	-1.61864E-004	0.00000E+000	-8.33000E-001	-7.45939E-004	10	..........a	-327.74
	1364	6.825	-8.64587E-001	-1.53994E-004	0.00000E+000	-8.64000E-001	-7.85939E-004	10	..........a	-327.74
	1395	6.98	-8.95621E-001	-1.46792E-004	0.00000E+000	-8.95000E-001	-7.85939E-004	10	..........a	-327.74
	1426	7.135	-9.26646E-001	-1.40660E-004	0.00000E+000	-9.26000E-001	-7.85939E-004	10	..........a	-327.74
[...]
	2015	10.08	-4.85844E-001	2.63018E-004	0.00000E+000	-4.85000E-001	-8.15939E-004	10	..........a	-327.74
	2046	10.235	-4.54829E-001	2.44721E-004	0.00000E+000	-4.54000E-001	-7.92605E-004	10	..........a	-327.74
	2077	10.39	-4.23822E-001	2.06773E-004	0.00000E+000	-4.23000E-001	-7.79272E-004	10	..........a	-327.74
	2108	10.545	-3.92904E-001	1.73988E-004	0.00000E+000	-3.92000E-001	-8.05939E-004	10	..........a	-327.74
	2139	10.7	-3.61899E-001	1.49608E-004	0.00000E+000	-3.61000E-001	-8.02606E-004	10	..........a	-327.74
	2170	10.855	-3.30912E-001	1.32898E-004	0.00000E+000	-3.30000E-001	-7.99272E-004	10	..........a	-327.74
	2201	11.01	-2.99857E-001	1.19062E-004	0.00000E+000	-2.99000E-001	-7.99272E-004	10	..........a	-327.74
	2232	11.165	-2.68874E-001	1.09020E-004	0.00000E+000	-2.68000E-001	-7.79272E-004	10	..........a	-327.74
	2263	11.32	-2.37884E-001	9.93447E-005	0.00000E+000	-2.37000E-001	-7.82606E-004	10	..........a	-327.74
	2294	11.475	-2.06887E-001	9.09563E-005	0.00000E+000	-2.06000E-001	-7.82606E-004	10	..........a	-327.74
	2325	11.63	-1.75974E-001	8.37042E-005	0.00000E+000	-1.75000E-001	-8.15939E-004	10	..........a	-327.74
	2356	11.785	-1.45011E-001	7.72876E-005	0.00000E+000	-1.44000E-001	-7.65939E-004	10	..........a	-327.74
	2387	11.94	-1.13909E-001	7.14391E-005	0.00000E+000	-1.13000E-001	-8.09272E-004	10	..........a	-327.74
	2418	12.095	-8.29756E-002	6.76627E-005	0.00000E+000	-8.20000E-002	-8.22606E-004	10	..........a	-327.74
	2449	12.25	-5.19406E-002	6.44711E-005	0.00000E+000	-5.10000E-002	-8.32606E-004	10	..........a	-327.74
	2480	12.405	-2.10489E-002	6.16806E-005	0.00000E+000	-2.00000E-002	-8.02606E-004	10	..........a	-327.74
	2511	12.56	1.00144E-002	5.96420E-005	0.00000E+000	1.10000E-002	-7.95939E-004	10	..........a	-327.74
	2542	12.715	4.10761E-002	5.74195E-005	0.00000E+000	4.20000E-002	-7.99272E-004	10	..........a	-327.74
	2573	12.87	7.20061E-002	5.42781E-005	0.00000E+000	7.30000E-002	-8.09272E-004	10	..........a	-327.74
	2604	13.025	1.02926E-001	5.21225E-005	0.00000E+000	1.04000E-001	-8.19272E-004	10	..........a	-327.74
	2635	13.18	1.33994E-001	4.91983E-005	0.00000E+000	1.35000E-001	-8.19272E-004	10	..........a	-327.74
	2666	13.335	1.64976E-001	4.63075E-005	0.00000E+000	1.66000E-001	-8.09272E-004	10	..........a	-327.74
	2697	13.49	1.95874E-001	4.40349E-005	0.00000E+000	1.97000E-001	-7.89272E-004	10	..........a	-327.74
	2728	13.645	2.26924E-001	4.19295E-005	0.00000E+000	2.28000E-001	-7.75939E-004	10	..........a	-327.74
	2759	13.8	2.57839E-001	4.02585E-005	0.00000E+000	2.59000E-001	-7.75939E-004	10	..........a	-327.74
	2790	13.955	2.88921E-001	3.88214E-005	0.00000E+000	2.90000E-001	-7.85939E-004	10	..........a	-327.74
	2821	14.11	3.19881E-001	3.80695E-005	0.00000E+000	3.21000E-001	-8.15939E-004	10	..........a	-327.74
	2852	14.265	3.50861E-001	3.78021E-005	0.00000E+000	3.52000E-001	-7.99272E-004	10	..........a	-327.74
	2883	14.42	3.81894E-001	3.68664E-005	0.00000E+000	3.83000E-001	-7.89272E-004	10	..........a	-327.74
	2914	14.575	4.12834E-001	3.61645E-005	0.00000E+000	4.14000E-001	-8.55939E-004	10	..........a	-327.74
	2945	14.73	4.43828E-001	3.47776E-005	0.00000E+000	4.45000E-001	-8.32606E-004	10	..........a	-327.74
	2976	14.885	4.74869E-001	3.37750E-005	0.00000E+000	4.76000E-001	-7.85939E-004	10	..........a	-327.74
	3000	15.005	4.98834E-001	3.28727E-005	0.00000E+000	5.00000E-001	-8.09272E-004	10	..........a	-327.74
CURVE2	TABLE
	Pt	T	Vf	Im	Vu	Sig	Ach	IERange	Over	Temp
	#	s	V vs. Ref.	A	V	V	V	#	bits	deg C
	3001	15.01	4.98828E-001	3.22043E-005	0.00000E+000	5.00000E-001	-8.75939E-004	10	..........a	-327.74

File: 1mkcl-5mmolar14btmapaq-nitrogen-300mvpers.DTA
EXPLAIN
TAG	CV
TITLE	LABEL	Cyclic Voltammetry	Test &Identifier
DATE	LABEL	1/31/2023	Date
TIME	LABEL	14:02:24	Time
NOTES	NOTES	1	&Notes...

PSTAT	PSTAT	REF3000-21108	Potentiostat
VINIT	POTEN	5.00000E-001	F	Initial &E (V)
VLIMIT1	POTEN	-1.00000E+000	F	Scan Limit &1 (V)
VLIMIT2	POTEN	5.00000E-001	F	Scan Limit &2 (V)
VFINAL	POTEN	5.00000E-001	F	Final &E (V)
SCANRATE	QUANT	2.99999E+002	&Scan Rate (mV/s)
STEPSIZE	QUANT	1.00000E+000	St&ep Size (mV)
CYCLES	IQUANT	1	C&ycles (#)
IMODE	SELECTOR	1	I/E Range &Mode
IRANGE	QUANT	1.00000E+001	&Max Current (mA)
AREA	QUANT	1.00000E+000	Electrode &Area (cm^2)
ELECTRODETYPE	SELECTOR	0	Electrode Type
STRIPPING	TOGGLE	F	Used for Stripping
POLARITY	TOGGLE	F	Signal Polarity
CONDIT	TWOPARAM	F	1.50000E+001	0.00000E+000	Conditionin&g	Time(s)	E(V)
DELAY	TWOPARAM	F	5.00000E+000	0.00000E+000	Init. De&lay	Time(s)	Stab.(mV/s)
EQDELAY	QUANT	0.00000E+000	Equil. &Time (s)
IRCOMP	SELECTOR	0	IRCom&p
PFCOR	QUANT	5.00000E+001	PF Corr. (ohm)
SAMPLINGMODE	SELECTOR	1	Sampling &Mode
EOC	QUANT	0	Open Circuit (V)
PSTATMODEL	IQUANT	5	Pstat Model
PSTATSECTION	LABEL	REF3000-21108	Pstat Section
PSTATSERIALNO	LABEL	21108	Pstat Serial Number
CTRLMODE	IQUANT	1	Control Mode
ELECTROMETER	IQUANT	0	RE=0 or CS=1
IESTAB	IQUANT	2	I/E Stability
CASPEED	IQUANT	4	Control Amp Speed
CONVENTION	IQUANT	1	Current Convention
ICHRANGE	IQUANT	2	Ich Range
ICHRANGEMODE	TOGGLE	F	Ich Auto Range
ICHOFFSETENABLE	TOGGLE	F	Ich Offset Enable
ICHOFFSET	QUANT	0	Ich Offset (V)
ICHFILTER	IQUANT	2	Ich Filter
VCHRANGE	IQUANT	2	Vch Range
VCHRANGEMODE	TOGGLE	F	Vch Auto Range
VCHOFFSETENABLE	TOGGLE	F	Vch Offset Enable
VCHOFFSET	QUANT	0	Vch Offset (V)
VCHFILTER	IQUANT	2	Vch Filter
ACHRANGE	IQUANT	2	Ach Range
ACHOFFSETENABLE	TOGGLE	F	Ach Offset Enable
ACHOFFSET	QUANT	0	Ach Offset (V)
ACHFILTER	IQUANT	0	Ach Filter
IERANGELOWERLIMIT	IQUANT	2	I/E Range Lower Limit
IERANGEMODE	TOGGLE	F	I/E AutoRange
IERANGE	IQUANT	10	I/E Range
POSFEEDENABLE	TOGGLE	F	Positive Feedback IR Comp
POSFEEDRESISTANCE	QUANT	0	Positive Feedback Resistance (ohm)
ACHSELECT	IQUANT	0	Ach Select
SENSECABLEID	IQUANT	14	Sense Cable ID
PWRCABLEID	IQUANT	7	Power Cable ID
DCCALDATE	LABEL	11/9/2022	DC Calibration Date
ACCALDATE	LABEL	11/9/2022	AC Calibration Date
THERMOSELECT	IQUANT	1	Thermo Select
FRAMEWORKVERSION	LABEL	7.8.2	Framework Version
INSTRUMENTVERSION	LABEL	4.40	Instrument Version
COMPLIANCEVOLTAGE	IQUANT	0	Compliance Voltage
CURVE1	TABLE
	Pt	T	Vf	Im	Vu	Sig	Ach	IERange	Over	Temp
	#	s	V vs. Ref.	A	V	V	V	#	bits	deg C
	0	0.003333	4.98821E-001	7.85408E-005	0.00000E+000	5.00000E-001	-8.24272E-004	10	..........a	-327.74
	32	0.11	4.66836E-001	4.03921E-005	0.00000E+000	4.68000E-001	-7.89272E-004	10	..........a	-327.74
	64	0.216667	4.34861E-001	2.97396E-005	0.00000E+000	4.36000E-001	-8.29272E-004	10	..........a	-327.74
	96	0.323333	4.02851E-001	2.38243E-005	0.00000E+000	4.04000E-001	-8.69272E-004	10	..........a	-327.74
	128	0.43	3.70844E-001	2.01648E-005	0.00000E+000	3.72000E-001	-8.34272E-004	10	..........a	-327.74
	160	0.536667	3.38886E-001	1.69816E-005	0.00000E+000	3.40000E-001	-8.44272E-004	10	..........a	-327.74
	192	0.643333	3.06881E-001	1.52020E-005	0.00000E+000	3.08000E-001	-8.39272E-004	10	..........a	-327.74
	224	0.75	2.74871E-001	1.34224E-005	0.00000E+000	2.76000E-001	-8.64272E-004	10	..........a	-327.74
	256	0.856667	2.42886E-001	1.17681E-005	0.00000E+000	2.44000E-001	-8.54272E-004	10	..........a	-327.74
	288	0.96333	2.10899E-001	1.07906E-005	0.00000E+000	2.12000E-001	-8.24272E-004	10	..........a	-327.74
	320	1.07	1.78984E-001	9.83810E-006	0.00000E+000	1.80000E-001	-8.29272E-004	10	..........a	-327.74
	352	1.17667	1.47021E-001	8.63498E-006	0.00000E+000	1.48000E-001	-8.19272E-004	10	..........a	-327.74
	384	1.28333	1.14964E-001	7.70758E-006	0.00000E+000	1.16000E-001	-8.34272E-004	10	..........a	-327.74
	416	1.39	8.29736E-002	6.88044E-006	0.00000E+000	8.40000E-002	-8.19272E-004	10	..........a	-327.74
	448	1.49667	5.09336E-002	5.52694E-006	0.00000E+000	5.20000E-002	-8.34272E-004	10	..........a	-327.74
	480	1.60333	1.89086E-002	4.17344E-006	0.00000E+000	2.00000E-002	-8.19272E-004	10	..........a	-327.74
	512	1.71	-1.30264E-002	3.54682E-006	0.00000E+000	-1.20000E-002	-8.34272E-004	10	..........a	-327.74
	544	1.81667	-4.50189E-002	2.59435E-006	0.00000E+000	-4.40000E-002	-8.64272E-004	10	..........a	-327.74
	576	1.92333	-7.69489E-002	1.59176E-006	0.00000E+000	-7.60000E-002	-8.19272E-004	10	..........a	-327.74
	608	2.03	-1.08909E-001	1.01527E-006	0.00000E+000	-1.08000E-001	-8.24272E-004	10	..........a	-327.74
	640	2.13667	-1.40916E-001	5.39036E-007	0.00000E+000	-1.40000E-001	-8.24272E-004	10	..........a	-327.74
	672	2.24333	-1.72941E-001	-1.62780E-007	0.00000E+000	-1.72000E-001	-8.69272E-004	10	..........a	-327.74
	704	2.35	-2.04939E-001	-1.11524E-006	0.00000E+000	-2.04000E-001	-8.29272E-004	10	..........a	-327.74
	736	2.45667	-2.36964E-001	-2.97004E-006	0.00000E+000	-2.36000E-001	-8.14272E-004	10	..........a	-327.74
	768	2.56333	-2.68874E-001	-4.47393E-006	0.00000E+000	-2.68000E-001	-8.14272E-004	10	..........a	-327.74
	800	2.67	-3.00869E-001	-6.22847E-006	0.00000E+000	-3.00000E-001	-7.69272E-004	10	..........a	-327.74
	832	2.77667	-3.32816E-001	-8.20860E-006	0.00000E+000	-3.32000E-001	-7.99272E-004	10	..........a	-327.74
	864	2.88333	-3.64931E-001	-1.09407E-005	0.00000E+000	-3.64000E-001	-8.19272E-004	10	..........a	-327.74
	896	2.99	-3.96834E-001	-1.89113E-005	0.00000E+000	-3.96000E-001	-8.34272E-004	10	..........a	-327.74
	928	3.09667	-4.28849E-001	-4.19208E-005	0.00000E+000	-4.28000E-001	-7.84272E-004	10	..........a	-327.74
	960	3.20333	-4.60809E-001	-9.63115E-005	0.00000E+000	-4.60000E-001	-7.94272E-004	10	..........a	-327.74
	992	3.31	-4.92794E-001	-1.83663E-004	0.00000E+000	-4.92000E-001	-8.09272E-004	10	..........a	-327.74
	1024	3.41667	-5.24779E-001	-3.18110E-004	0.00000E+000	-5.24000E-001	-8.39272E-004	10	..........a	-327.74
	1056	3.52333	-5.56776E-001	-4.80831E-004	0.00000E+000	-5.56000E-001	-8.04272E-004	10	..........a	-327.74
	1088	3.63	-5.88786E-001	-5.10533E-004	0.00000E+000	-5.88000E-001	-8.04272E-004	10	..........a	-327.74
	1120	3.73667	-6.20746E-001	-4.10123E-004	0.00000E+000	-6.20000E-001	-7.79272E-004	10	..........a	-327.74
	1152	3.84333	-6.52739E-001	-3.39641E-004	0.00000E+000	-6.52000E-001	-7.94272E-004	10	..........a	-327.74
	1184	3.95	-6.84754E-001	-2.96630E-004	0.00000E+000	-6.84000E-001	-8.09272E-004	10	..........a	-327.74
	1216	4.05667	-7.16734E-001	-2.64071E-004	0.00000E+000	-7.16000E-001	-7.99272E-004	10	..........a	-327.74
	1248	4.16333	-7.48706E-001	-2.40234E-004	0.00000E+000	-7.48000E-001	-7.79272E-004	10	..........a	-327.74
	1280	4.27	-7.80706E-001	-2.21109E-004	0.00000E+000	-7.80000E-001	-8.14272E-004	10	..........a	-327.74
	1312	4.37667	-8.12696E-001	-2.06547E-004	0.00000E+000	-8.12000E-001	-7.89272E-004	10	..........a	-327.74
	1344	4.48333	-8.44654E-001	-1.93939E-004	0.00000E+000	-8.44000E-001	-7.94272E-004	10	..........a	-327.74
	1376	4.59	-8.76694E-001	-1.83663E-004	0.00000E+000	-8.76000E-001	-7.39272E-004	10	..........a	-327.74
	1408	4.69667	-9.08566E-001	-1.75090E-004	0.00000E+000	-9.08000E-001	-7.94272E-004	10	..........a	-327.74
	1440	4.80333	-9.40629E-001	-1.67646E-004	0.00000E+000	-9.40000E-001	-7.74272E-004	10	..........a	-327.74
[...]
	1984	6.61667	-5.16756E-001	2.66076E-004	0.00000E+000	-5.16000E-001	-8.14272E-004	10	..........a	-327.74
	2016	6.72333	-4.84824E-001	3.17033E-004	0.00000E+000	-4.84000E-001	-8.44272E-004	10	..........a	-327.74
	2048	6.83	-4.52811E-001	2.97357E-004	0.00000E+000	-4.52000E-001	-8.34272E-004	10	..........a	-327.74
	2080	6.93667	-4.20981E-001	2.52641E-004	0.00000E+000	-4.20000E-001	-8.14272E-004	10	..........a	-327.74
	2112	7.04333	-3.88854E-001	2.14142E-004	0.00000E+000	-3.88000E-001	-8.14272E-004	10	..........a	-327.74
	2144	7.15	-3.56854E-001	1.85793E-004	0.00000E+000	-3.56000E-001	-7.99272E-004	10	..........a	-327.74
	2176	7.25667	-3.24909E-001	1.65566E-004	0.00000E+000	-3.24000E-001	-8.34272E-004	10	..........a	-327.74
	2208	7.36333	-2.92991E-001	1.50201E-004	0.00000E+000	-2.92000E-001	-8.39272E-004	10	..........a	-327.74
	2240	7.47	-2.60899E-001	1.36666E-004	0.00000E+000	-2.60000E-001	-8.19272E-004	10	..........a	-327.74
	2272	7.57667	-2.28996E-001	1.24886E-004	0.00000E+000	-2.28000E-001	-7.84272E-004	10	..........a	-327.74
	2304	7.68333	-1.96916E-001	1.14083E-004	0.00000E+000	-1.96000E-001	-8.34272E-004	10	..........a	-327.74
	2336	7.79	-1.64904E-001	1.05059E-004	0.00000E+000	-1.64000E-001	-8.19272E-004	10	..........a	-327.74
	2368	7.89667	-1.32911E-001	9.71891E-005	0.00000E+000	-1.32000E-001	-8.39272E-004	10	..........a	-327.74
	2400	8.00333	-1.00994E-001	9.11986E-005	0.00000E+000	-1.00000E-001	-8.24272E-004	10	..........a	-327.74
	2432	8.11	-6.89764E-002	8.70128E-005	0.00000E+000	-6.80000E-002	-8.19272E-004	10	..........a	-327.74
	2464	8.21667	-3.69839E-002	8.37293E-005	0.00000E+000	-3.60000E-002	-8.14272E-004	10	..........a	-327.74
	2496	8.32333	-4.99394E-003	8.16990E-005	0.00000E+000	-4.00001E-003	-8.29272E-004	10	..........a	-327.74
	2528	8.43	2.70336E-002	8.01701E-005	0.00000E+000	2.80000E-002	-8.24272E-004	10	..........a	-327.74
	2560	8.53667	5.89111E-002	7.73127E-005	0.00000E+000	6.00000E-002	-8.54272E-004	10	..........a	-327.74
	2592	8.64333	9.10111E-002	7.38287E-005	0.00000E+000	9.20000E-002	-8.09272E-004	10	..........a	-327.74
	2624	8.75	1.22949E-001	7.04449E-005	0.00000E+000	1.24000E-001	-8.14272E-004	10	..........a	-327.74
	2656	8.85667	1.54974E-001	6.55823E-005	0.00000E+000	1.56000E-001	-8.19272E-004	10	..........a	-327.74
	2688	8.96333	1.86904E-001	6.16973E-005	0.00000E+000	1.88000E-001	-8.34272E-004	10	..........a	-327.74
	2720	9.07	2.18954E-001	5.84890E-005	0.00000E+000	2.20000E-001	-8.19272E-004	10	..........a	-327.74
	2752	9.17667	2.50961E-001	5.58572E-005	0.00000E+000	2.52000E-001	-8.39272E-004	10	..........a	-327.74
	2784	9.28333	2.82886E-001	5.44535E-005	0.00000E+000	2.84000E-001	-8.14272E-004	10	..........a	-327.74
	2816	9.39	3.14826E-001	5.25235E-005	0.00000E+000	3.16000E-001	-8.24272E-004	10	..........a	-327.74
	2848	9.49667	3.46831E-001	5.19220E-005	0.00000E+000	3.48000E-001	-8.14272E-004	10	..........a	-327.74
	2880	9.6033	3.78881E-001	5.08191E-005	0.00000E+000	3.80000E-001	-8.29272E-004	10	..........a	-327.74
	2912	9.71	4.10856E-001	4.93403E-005	0.00000E+000	4.12000E-001	-8.39272E-004	10	..........a	-327.74
	2944	9.8167	4.42849E-001	4.77361E-005	0.00000E+000	4.44000E-001	-8.49272E-004	10	..........a	-327.74
	2976	9.9233	4.74846E-001	4.64077E-005	0.00000E+000	4.76000E-001	-8.14272E-004	10	..........a	-327.74
	3000	10.0033	4.98824E-001	4.52046E-005	0.00000E+000	5.00000E-001	-8.09272E-004	10	..........a	-327.74
CURVE2	TABLE
	Pt	T	Vf	Im	Vu	Sig	Ach	IERange	Over	Temp
	#	s	V vs. Ref.	A	V	V	V	#	bits	deg C
	3001	10.0067	4.98821E-001	4.41519E-005	0.00000E+000	5.00000E-001	-8.24272E-004	10	..........a	-327.74