Folder: 2024-09-QuCO2-NCE/data/02-SI/Figures_S9_S11_RDE/14btmapaq-rde (part 4)

File: 1mkcl-5mmolar14btmapaq-nitrogen-600mvpers.DTA
EXPLAIN
TAG	CV
TITLE	LABEL	Cyclic Voltammetry	Test &Identifier
DATE	LABEL	1/31/2023	Date
TIME	LABEL	14:03:18	Time
NOTES	NOTES	1	&Notes...

PSTAT	PSTAT	REF3000-21108	Potentiostat
VINIT	POTEN	5.00000E-001	F	Initial &E (V)
VLIMIT1	POTEN	-1.00000E+000	F	Scan Limit &1 (V)
VLIMIT2	POTEN	5.00000E-001	F	Scan Limit &2 (V)
VFINAL	POTEN	5.00000E-001	F	Final &E (V)
SCANRATE	QUANT	5.99999E+002	&Scan Rate (mV/s)
STEPSIZE	QUANT	1.00000E+000	St&ep Size (mV)
CYCLES	IQUANT	1	C&ycles (#)
IMODE	SELECTOR	1	I/E Range &Mode
IRANGE	QUANT	1.00000E+001	&Max Current (mA)
AREA	QUANT	1.00000E+000	Electrode &Area (cm^2)
ELECTRODETYPE	SELECTOR	0	Electrode Type
STRIPPING	TOGGLE	F	Used for Stripping
POLARITY	TOGGLE	F	Signal Polarity
CONDIT	TWOPARAM	F	1.50000E+001	0.00000E+000	Conditionin&g	Time(s)	E(V)
DELAY	TWOPARAM	F	5.00000E+000	0.00000E+000	Init. De&lay	Time(s)	Stab.(mV/s)
EQDELAY	QUANT	0.00000E+000	Equil. &Time (s)
IRCOMP	SELECTOR	0	IRCom&p
PFCOR	QUANT	5.00000E+001	PF Corr. (ohm)
SAMPLINGMODE	SELECTOR	1	Sampling &Mode
EOC	QUANT	0	Open Circuit (V)
PSTATMODEL	IQUANT	5	Pstat Model
PSTATSECTION	LABEL	REF3000-21108	Pstat Section
PSTATSERIALNO	LABEL	21108	Pstat Serial Number
CTRLMODE	IQUANT	1	Control Mode
ELECTROMETER	IQUANT	0	RE=0 or CS=1
IESTAB	IQUANT	2	I/E Stability
CASPEED	IQUANT	4	Control Amp Speed
CONVENTION	IQUANT	1	Current Convention
ICHRANGE	IQUANT	2	Ich Range
ICHRANGEMODE	TOGGLE	F	Ich Auto Range
ICHOFFSETENABLE	TOGGLE	F	Ich Offset Enable
ICHOFFSET	QUANT	0	Ich Offset (V)
ICHFILTER	IQUANT	1	Ich Filter
VCHRANGE	IQUANT	2	Vch Range
VCHRANGEMODE	TOGGLE	F	Vch Auto Range
VCHOFFSETENABLE	TOGGLE	F	Vch Offset Enable
VCHOFFSET	QUANT	0	Vch Offset (V)
VCHFILTER	IQUANT	1	Vch Filter
ACHRANGE	IQUANT	2	Ach Range
ACHOFFSETENABLE	TOGGLE	F	Ach Offset Enable
ACHOFFSET	QUANT	0	Ach Offset (V)
ACHFILTER	IQUANT	0	Ach Filter
IERANGELOWERLIMIT	IQUANT	2	I/E Range Lower Limit
IERANGEMODE	TOGGLE	F	I/E AutoRange
IERANGE	IQUANT	10	I/E Range
POSFEEDENABLE	TOGGLE	F	Positive Feedback IR Comp
POSFEEDRESISTANCE	QUANT	0	Positive Feedback Resistance (ohm)
ACHSELECT	IQUANT	0	Ach Select
SENSECABLEID	IQUANT	14	Sense Cable ID
PWRCABLEID	IQUANT	7	Power Cable ID
DCCALDATE	LABEL	11/9/2022	DC Calibration Date
ACCALDATE	LABEL	11/9/2022	AC Calibration Date
THERMOSELECT	IQUANT	1	Thermo Select
FRAMEWORKVERSION	LABEL	7.8.2	Framework Version
INSTRUMENTVERSION	LABEL	4.40	Instrument Version
COMPLIANCEVOLTAGE	IQUANT	0	Compliance Voltage
CURVE1	TABLE
	Pt	T	Vf	Im	Vu	Sig	Ach	IERange	Over	Temp
	#	s	V vs. Ref.	A	V	V	V	#	bits	deg C
	0	0.001667	4.98711E-001	8.01056E-005	0.00000E+000	5.00000E-001	-8.19272E-004	10	..........a	-327.74
	32	0.055	4.66726E-001	5.00779E-005	0.00000E+000	4.68000E-001	-8.09272E-004	10	..........a	-327.74
	64	0.108333	4.34736E-001	3.69941E-005	0.00000E+000	4.36000E-001	-8.19272E-004	10	..........a	-327.74
	96	0.161667	4.02721E-001	2.91738E-005	0.00000E+000	4.04000E-001	-8.09272E-004	10	..........a	-327.74
	128	0.215	3.70771E-001	2.34591E-005	0.00000E+000	3.72000E-001	-7.99272E-004	10	..........a	-327.74
	160	0.268333	3.38776E-001	1.92983E-005	0.00000E+000	3.40000E-001	-8.19272E-004	10	..........a	-327.74
	192	0.321667	3.06761E-001	1.53381E-005	0.00000E+000	3.08000E-001	-8.19272E-004	10	..........a	-327.74
	224	0.375	2.74746E-001	1.21297E-005	0.00000E+000	2.76000E-001	-8.39272E-004	10	..........a	-327.74
	256	0.428333	2.42796E-001	1.04755E-005	0.00000E+000	2.44000E-001	-7.99272E-004	10	..........a	-327.74
	288	0.481667	2.10816E-001	8.11937E-006	0.00000E+000	2.12000E-001	-7.99272E-004	10	..........a	-327.74
	320	0.535	1.78831E-001	6.91626E-006	0.00000E+000	1.80000E-001	-8.09272E-004	10	..........a	-327.74
	352	0.588333	1.46856E-001	5.41237E-006	0.00000E+000	1.48000E-001	-8.09272E-004	10	..........a	-327.74
	384	0.641667	1.14836E-001	4.20926E-006	0.00000E+000	1.16000E-001	-7.59272E-004	10	..........a	-327.74
	416	0.695	8.28410E-002	2.49011E-007	0.00000E+000	8.40000E-002	-8.09272E-004	10	..........a	-327.74
	448	0.748333	5.08810E-002	-8.53843E-007	0.00000E+000	5.20000E-002	-7.69272E-004	10	..........a	-327.74
	480	0.801667	1.88310E-002	-5.41565E-006	0.00000E+000	2.00000E-002	-7.39272E-004	10	..........a	-327.74
	512	0.855	-1.31190E-002	-6.81928E-006	0.00000E+000	-1.20000E-002	-8.29272E-004	10	..........a	-327.74
	544	0.908333	-4.51390E-002	-8.12265E-006	0.00000E+000	-4.40000E-002	-7.89272E-004	10	..........a	-327.74
	576	0.96167	-7.71240E-002	-9.77693E-006	0.00000E+000	-7.60000E-002	-6.79272E-004	10	..........a	-327.74
	608	1.015	-1.09134E-001	-1.18322E-005	0.00000E+000	-1.08000E-001	-7.99272E-004	10	..........a	-327.74
	640	1.06833	-1.41084E-001	-1.00276E-005	0.00000E+000	-1.40000E-001	-8.29272E-004	10	..........a	-327.74
	672	1.12167	-1.73124E-001	-1.14312E-005	0.00000E+000	-1.72000E-001	-7.59272E-004	10	..........a	-327.74
	704	1.175	-2.05049E-001	-1.37372E-005	0.00000E+000	-2.04000E-001	-7.49272E-004	10	..........a	-327.74
	736	1.22833	-2.37064E-001	-1.55418E-005	0.00000E+000	-2.36000E-001	-8.39272E-004	10	..........a	-327.74
	768	1.28167	-2.69079E-001	-1.78979E-005	0.00000E+000	-2.68000E-001	-7.49272E-004	10	..........a	-327.74
	800	1.335	-3.01044E-001	-2.04546E-005	0.00000E+000	-3.00000E-001	-7.59272E-004	10	..........a	-327.74
	832	1.38833	-3.33044E-001	-2.53673E-005	0.00000E+000	-3.32000E-001	-7.49272E-004	10	..........a	-327.74
	864	1.44167	-3.65029E-001	-3.04805E-005	0.00000E+000	-3.64000E-001	-7.99272E-004	10	..........a	-327.74
	896	1.495	-3.96994E-001	-4.19602E-005	0.00000E+000	-3.96000E-001	-7.99272E-004	10	..........a	-327.74
	928	1.54833	-4.29044E-001	-7.48453E-005	0.00000E+000	-4.28000E-001	-7.89272E-004	10	..........a	-327.74
	960	1.60167	-4.60959E-001	-1.45227E-004	0.00000E+000	-4.60000E-001	-7.89272E-004	10	..........a	-327.74
	992	1.655	-4.93009E-001	-2.59924E-004	0.00000E+000	-4.92000E-001	-7.59272E-004	10	..........a	-327.74
	1024	1.70833	-5.24959E-001	-4.29814E-004	0.00000E+000	-5.24000E-001	-7.89272E-004	10	..........a	-327.74
	1056	1.76167	-5.56974E-001	-6.57403E-004	0.00000E+000	-5.56000E-001	-7.29272E-004	10	..........a	-327.74
	1088	1.815	-5.88849E-001	-7.44779E-004	0.00000E+000	-5.88000E-001	-6.89272E-004	10	..........a	-327.74
	1120	1.86833	-6.20889E-001	-6.22011E-004	0.00000E+000	-6.20000E-001	-7.19272E-004	10	..........a	-327.74
	1152	1.92167	-6.52824E-001	-5.12026E-004	0.00000E+000	-6.52000E-001	-7.49272E-004	10	..........a	-327.74
	1184	1.975	-6.84869E-001	-4.47309E-004	0.00000E+000	-6.84000E-001	-7.99272E-004	10	..........a	-327.74
	1216	2.02833	-7.16864E-001	-3.97430E-004	0.00000E+000	-7.16000E-001	-7.69272E-004	10	..........a	-327.74
	1248	2.08167	-7.48859E-001	-3.60434E-004	0.00000E+000	-7.48000E-001	-7.79272E-004	10	..........a	-327.74
	1280	2.135	-7.80814E-001	-3.30707E-004	0.00000E+000	-7.80000E-001	-7.29272E-004	10	..........a	-327.74
	1312	2.18833	-8.12844E-001	-3.06896E-004	0.00000E+000	-8.12000E-001	-7.49272E-004	10	..........a	-327.74
	1344	2.24167	-8.44759E-001	-2.88648E-004	0.00000E+000	-8.44000E-001	-7.29272E-004	10	..........a	-327.74
	1376	2.295	-8.76759E-001	-2.72557E-004	0.00000E+000	-8.76000E-001	-7.99272E-004	10	..........a	-327.74
	1408	2.34833	-9.08754E-001	-2.60024E-004	0.00000E+000	-9.08000E-001	-8.09272E-004	10	..........a	-327.74
	1440	2.40167	-9.40734E-001	-2.48946E-004	0.00000E+000	-9.40000E-001	-7.99272E-004	10	..........a	-327.74
[...]
	1984	3.30833	-5.16999E-001	3.36870E-004	0.00000E+000	-5.16000E-001	-7.89272E-004	10	..........a	-327.74
	2016	3.36167	-4.84984E-001	4.18230E-004	0.00000E+000	-4.84000E-001	-8.29272E-004	10	..........a	-327.74
	2048	3.415	-4.53029E-001	4.09558E-004	0.00000E+000	-4.52000E-001	-8.59272E-004	10	..........a	-327.74
	2080	3.46833	-4.20999E-001	3.55117E-004	0.00000E+000	-4.20000E-001	-7.99272E-004	10	..........a	-327.74
	2112	3.52167	-3.89014E-001	3.05439E-004	0.00000E+000	-3.88000E-001	-8.39272E-004	10	..........a	-327.74
	2144	3.575	-3.57049E-001	2.68694E-004	0.00000E+000	-3.56000E-001	-7.79272E-004	10	..........a	-327.74
	2176	3.62833	-3.24994E-001	2.41122E-004	0.00000E+000	-3.24000E-001	-8.29272E-004	10	..........a	-327.74
	2208	3.68167	-2.92989E-001	2.18564E-004	0.00000E+000	-2.92000E-001	-8.09272E-004	10	..........a	-327.74
	2240	3.735	-2.61049E-001	1.99665E-004	0.00000E+000	-2.60000E-001	-7.79272E-004	10	..........a	-327.74
	2272	3.78833	-2.29059E-001	1.81869E-004	0.00000E+000	-2.28000E-001	-7.89272E-004	10	..........a	-327.74
	2304	3.84167	-1.97104E-001	1.66629E-004	0.00000E+000	-1.96000E-001	-8.39272E-004	10	..........a	-327.74
	2336	3.895	-1.65129E-001	1.51941E-004	0.00000E+000	-1.64000E-001	-7.89272E-004	10	..........a	-327.74
	2368	3.94833	-1.33109E-001	1.41565E-004	0.00000E+000	-1.32000E-001	-7.79272E-004	10	..........a	-327.74
	2400	4.00167	-1.01144E-001	1.32140E-004	0.00000E+000	-1.00000E-001	-8.19272E-004	10	..........a	-327.74
	2432	4.055	-6.91290E-002	1.27428E-004	0.00000E+000	-6.80000E-002	-8.09272E-004	10	..........a	-327.74
	2464	4.10833	-3.70840E-002	1.22916E-004	0.00000E+000	-3.60000E-002	-8.39272E-004	10	..........a	-327.74
	2496	4.16167	-5.13900E-003	1.23518E-004	0.00000E+000	-4.00001E-003	-7.59272E-004	10	..........a	-327.74
	2528	4.215	2.68910E-002	1.24771E-004	0.00000E+000	2.80000E-002	-7.99272E-004	10	..........a	-327.74
	2560	4.26833	5.88510E-002	1.25072E-004	0.00000E+000	6.00000E-002	-8.09272E-004	10	..........a	-327.74
	2592	4.32167	9.08360E-002	1.18355E-004	0.00000E+000	9.20000E-002	-8.19272E-004	10	..........a	-327.74
	2624	4.375	1.22856E-001	1.11938E-004	0.00000E+000	1.24000E-001	-8.19272E-004	10	..........a	-327.74
	2656	4.42833	1.54806E-001	1.02113E-004	0.00000E+000	1.56000E-001	-7.79272E-004	10	..........a	-327.74
	2688	4.48167	1.86791E-001	9.67988E-005	0.00000E+000	1.88000E-001	-7.59272E-004	10	..........a	-327.74
	2720	4.535	2.18776E-001	8.96804E-005	0.00000E+000	2.20000E-001	-8.19272E-004	10	..........a	-327.74
	2752	4.58833	2.50781E-001	8.63217E-005	0.00000E+000	2.52000E-001	-7.79272E-004	10	..........a	-327.74
	2784	4.64167	2.82746E-001	8.27124E-005	0.00000E+000	2.84000E-001	-8.09272E-004	10	..........a	-327.74
	2816	4.695	3.14741E-001	8.00555E-005	0.00000E+000	3.16000E-001	-7.49272E-004	10	..........a	-327.74
	2848	4.74833	3.46761E-001	7.77495E-005	0.00000E+000	3.48000E-001	-8.49272E-004	10	..........a	-327.74
	2880	4.80167	3.78766E-001	7.74487E-005	0.00000E+000	3.80000E-001	-8.59272E-004	10	..........a	-327.74
	2912	4.855	4.10726E-001	7.37391E-005	0.00000E+000	4.12000E-001	-8.29272E-004	10	..........a	-327.74
	2944	4.90833	4.42716E-001	7.20347E-005	0.00000E+000	4.44000E-001	-7.59272E-004	10	..........a	-327.74
	2976	4.96167	4.74706E-001	6.97789E-005	0.00000E+000	4.76000E-001	-7.89272E-004	10	..........a	-327.74
	3000	5.00167	4.98691E-001	6.84254E-005	0.00000E+000	5.00000E-001	-7.59272E-004	10	..........a	-327.74
CURVE2	TABLE
	Pt	T	Vf	Im	Vu	Sig	Ach	IERange	Over	Temp
	#	s	V vs. Ref.	A	V	V	V	#	bits	deg C
	3001	5.00333	4.98641E-001	6.71722E-005	0.00000E+000	5.00000E-001	-7.89272E-004	10	..........a	-327.74

File: 1mkcl-5mmolar14btmapaq-nitrogen-700mvpers.DTA
EXPLAIN
TAG	CV
TITLE	LABEL	Cyclic Voltammetry	Test &Identifier
DATE	LABEL	1/31/2023	Date
TIME	LABEL	14:03:40	Time
NOTES	NOTES	1	&Notes...

PSTAT	PSTAT	REF3000-21108	Potentiostat
VINIT	POTEN	5.00000E-001	F	Initial &E (V)
VLIMIT1	POTEN	-1.00000E+000	F	Scan Limit &1 (V)
VLIMIT2	POTEN	5.00000E-001	F	Scan Limit &2 (V)
VFINAL	POTEN	5.00000E-001	F	Final &E (V)
SCANRATE	QUANT	6.97673E+002	&Scan Rate (mV/s)
STEPSIZE	QUANT	1.00000E+000	St&ep Size (mV)
CYCLES	IQUANT	1	C&ycles (#)
IMODE	SELECTOR	1	I/E Range &Mode
IRANGE	QUANT	1.00000E+001	&Max Current (mA)
AREA	QUANT	1.00000E+000	Electrode &Area (cm^2)
ELECTRODETYPE	SELECTOR	0	Electrode Type
STRIPPING	TOGGLE	F	Used for Stripping
POLARITY	TOGGLE	F	Signal Polarity
CONDIT	TWOPARAM	F	1.50000E+001	0.00000E+000	Conditionin&g	Time(s)	E(V)
DELAY	TWOPARAM	F	5.00000E+000	0.00000E+000	Init. De&lay	Time(s)	Stab.(mV/s)
EQDELAY	QUANT	0.00000E+000	Equil. &Time (s)
IRCOMP	SELECTOR	0	IRCom&p
PFCOR	QUANT	5.00000E+001	PF Corr. (ohm)
SAMPLINGMODE	SELECTOR	1	Sampling &Mode
EOC	QUANT	0	Open Circuit (V)
PSTATMODEL	IQUANT	5	Pstat Model
PSTATSECTION	LABEL	REF3000-21108	Pstat Section
PSTATSERIALNO	LABEL	21108	Pstat Serial Number
CTRLMODE	IQUANT	1	Control Mode
ELECTROMETER	IQUANT	0	RE=0 or CS=1
IESTAB	IQUANT	2	I/E Stability
CASPEED	IQUANT	4	Control Amp Speed
CONVENTION	IQUANT	1	Current Convention
ICHRANGE	IQUANT	2	Ich Range
ICHRANGEMODE	TOGGLE	F	Ich Auto Range
ICHOFFSETENABLE	TOGGLE	F	Ich Offset Enable
ICHOFFSET	QUANT	0	Ich Offset (V)
ICHFILTER	IQUANT	1	Ich Filter
VCHRANGE	IQUANT	2	Vch Range
VCHRANGEMODE	TOGGLE	F	Vch Auto Range
VCHOFFSETENABLE	TOGGLE	F	Vch Offset Enable
VCHOFFSET	QUANT	0	Vch Offset (V)
VCHFILTER	IQUANT	1	Vch Filter
ACHRANGE	IQUANT	2	Ach Range
ACHOFFSETENABLE	TOGGLE	F	Ach Offset Enable
ACHOFFSET	QUANT	0	Ach Offset (V)
ACHFILTER	IQUANT	0	Ach Filter
IERANGELOWERLIMIT	IQUANT	2	I/E Range Lower Limit
IERANGEMODE	TOGGLE	F	I/E AutoRange
IERANGE	IQUANT	10	I/E Range
POSFEEDENABLE	TOGGLE	F	Positive Feedback IR Comp
POSFEEDRESISTANCE	QUANT	0	Positive Feedback Resistance (ohm)
ACHSELECT	IQUANT	0	Ach Select
SENSECABLEID	IQUANT	14	Sense Cable ID
PWRCABLEID	IQUANT	7	Power Cable ID
DCCALDATE	LABEL	11/9/2022	DC Calibration Date
ACCALDATE	LABEL	11/9/2022	AC Calibration Date
THERMOSELECT	IQUANT	1	Thermo Select
FRAMEWORKVERSION	LABEL	7.8.2	Framework Version
INSTRUMENTVERSION	LABEL	4.40	Instrument Version
COMPLIANCEVOLTAGE	IQUANT	0	Compliance Voltage
CURVE1	TABLE
	Pt	T	Vf	Im	Vu	Sig	Ach	IERange	Over	Temp
	#	s	V vs. Ref.	A	V	V	V	#	bits	deg C
	0	0.001433	4.98679E-001	6.51581E-005	0.00000E+000	5.00000E-001	-8.51494E-004	10	..........a	-327.74
	32	0.0473	4.66579E-001	3.81471E-005	0.00000E+000	4.67900E-001	-7.84828E-004	10	..........a	-327.74
	64	0.093167	4.34509E-001	2.58800E-005	0.00000E+000	4.35800E-001	-8.29272E-004	10	..........a	-327.74
	96	0.139033	4.02338E-001	1.91568E-005	0.00000E+000	4.03700E-001	-7.84828E-004	10	..........a	-327.74
	128	0.1849	3.70244E-001	1.42617E-005	0.00000E+000	3.71550E-001	-8.51494E-004	10	..........a	-327.74
	160	0.230767	3.38144E-001	1.02514E-005	0.00000E+000	3.39450E-001	-8.07050E-004	10	..........a	-327.74
	192	0.276633	3.06109E-001	7.83334E-006	0.00000E+000	3.07350E-001	-8.40383E-004	10	..........a	-327.74
	224	0.3225	2.74009E-001	3.82296E-006	0.00000E+000	2.75250E-001	-8.40383E-004	10	..........a	-327.74
	256	0.368367	2.41932E-001	1.64085E-006	0.00000E+000	2.43150E-001	-8.29272E-004	10	..........a	-327.74
	288	0.414233	2.09791E-001	-2.60543E-006	0.00000E+000	2.11050E-001	-8.40383E-004	10	..........a	-327.74
	320	0.4601	1.77732E-001	-3.60803E-006	0.00000E+000	1.78950E-001	-8.84828E-004	10	..........a	-327.74
	352	0.505967	1.45626E-001	-6.02605E-006	0.00000E+000	1.46850E-001	-7.29272E-004	10	..........a	-327.74
	384	0.551833	1.13526E-001	-8.32612E-006	0.00000E+000	1.14700E-001	-7.84828E-004	10	..........a	-327.74
	416	0.5977	8.14145E-002	-1.08621E-005	0.00000E+000	8.26000E-002	-8.18161E-004	10	..........a	-327.74
	448	0.643567	4.93498E-002	-1.21596E-005	0.00000E+000	5.05000E-002	-7.84828E-004	10	..........a	-327.74
	480	0.689433	1.72028E-002	-1.42237E-005	0.00000E+000	1.84000E-002	-8.18161E-004	10	..........a	-327.74
	512	0.7353	-1.48384E-002	-1.56392E-005	0.00000E+000	-1.37000E-002	-7.84828E-004	10	..........a	-327.74
	544	0.781167	-4.69678E-002	-1.76443E-005	0.00000E+000	-4.58000E-002	-7.84828E-004	10	..........a	-327.74
	576	0.827033	-7.90325E-002	-1.74084E-005	0.00000E+000	-7.79000E-002	-7.84828E-004	10	..........a	-327.74
	608	0.8729	-1.11138E-001	-1.87059E-005	0.00000E+000	-1.10050E-001	-7.51494E-004	10	..........a	-327.74
	640	0.918767	-1.43238E-001	-1.78802E-005	0.00000E+000	-1.42150E-001	-8.51494E-004	10	..........a	-327.74
	672	0.96463	-1.75356E-001	-2.06521E-005	0.00000E+000	-1.74250E-001	-7.73717E-004	10	..........a	-327.74
	704	1.0105	-2.07421E-001	-2.17137E-005	0.00000E+000	-2.06350E-001	-8.29272E-004	10	..........a	-327.74
	736	1.05637	-2.39550E-001	-2.32471E-005	0.00000E+000	-2.38450E-001	-7.62605E-004	10	..........a	-327.74
	768	1.10223	-2.71556E-001	-2.62549E-005	0.00000E+000	-2.70550E-001	-7.51494E-004	10	..........a	-327.74
	800	1.1481	-3.03727E-001	-2.95575E-005	0.00000E+000	-3.02650E-001	-7.62605E-004	10	..........a	-327.74
	832	1.19397	-3.35797E-001	-3.44525E-005	0.00000E+000	-3.34750E-001	-6.84828E-004	10	..........a	-327.74
	864	1.23983	-3.67950E-001	-4.10579E-005	0.00000E+000	-3.66900E-001	-7.62605E-004	10	..........a	-327.74
	896	1.2857	-4.00003E-001	-5.57429E-005	0.00000E+000	-3.99000E-001	-7.95939E-004	10	..........a	-327.74
	928	1.33157	-4.32091E-001	-9.41364E-005	0.00000E+000	-4.31100E-001	-7.51494E-004	10	..........a	-327.74
	960	1.37743	-4.64221E-001	-1.76644E-004	0.00000E+000	-4.63200E-001	-8.40383E-004	10	..........a	-327.74
	992	1.4233	-4.96362E-001	-3.00966E-004	0.00000E+000	-4.95300E-001	-8.07050E-004	10	..........a	-327.74
	1024	1.46917	-5.28374E-001	-4.92166E-004	0.00000E+000	-5.27400E-001	-7.95939E-004	10	..........a	-327.74
	1056	1.51503	-5.60421E-001	-7.34322E-004	0.00000E+000	-5.59500E-001	-7.40383E-004	10	..........a	-327.74
	1088	1.5609	-5.92556E-001	-8.16653E-004	0.00000E+000	-5.91650E-001	-7.95939E-004	10	..........a	-327.74
	1120	1.60677	-6.24597E-001	-6.75936E-004	0.00000E+000	-6.23750E-001	-7.73717E-004	10	..........a	-327.74
	1152	1.65263	-6.56768E-001	-5.62702E-004	0.00000E+000	-6.55850E-001	-6.95939E-004	10	..........a	-327.74
	1184	1.6985	-6.88850E-001	-4.92697E-004	0.00000E+000	-6.87950E-001	-8.07050E-004	10	..........a	-327.74
	1216	1.74437	-7.20921E-001	-4.39618E-004	0.00000E+000	-7.20050E-001	-7.07050E-004	10	..........a	-327.74
	1248	1.79023	-7.53027E-001	-3.97981E-004	0.00000E+000	-7.52150E-001	-7.95939E-004	10	..........a	-327.74
	1280	1.8361	-7.85144E-001	-3.66370E-004	0.00000E+000	-7.84250E-001	-8.29272E-004	10	..........a	-327.74
	1312	1.88197	-8.17185E-001	-3.40421E-004	0.00000E+000	-8.16350E-001	-7.40383E-004	10	..........a	-327.74
	1344	1.92783	-8.49280E-001	-3.19897E-004	0.00000E+000	-8.48500E-001	-8.51494E-004	10	..........a	-327.74
	1376	1.9737	-8.81409E-001	-3.04091E-004	0.00000E+000	-8.80600E-001	-7.29272E-004	10	..........a	-327.74
	1408	2.01957	-9.13497E-001	-2.89760E-004	0.00000E+000	-9.12700E-001	-8.51494E-004	10	..........a	-327.74
	1440	2.06543	-9.45562E-001	-2.77611E-004	0.00000E+000	-9.44800E-001	-8.29272E-004	10	..........a	-327.74
[...]
	1984	2.84517	-5.10338E-001	3.79324E-004	0.00000E+000	-5.09350E-001	-8.40383E-004	10	..........a	-327.74
	2016	2.89103	-4.78262E-001	4.48798E-004	0.00000E+000	-4.77250E-001	-8.51494E-004	10	..........a	-327.74
	2048	2.9369	-4.46227E-001	4.25089E-004	0.00000E+000	-4.45150E-001	-7.95939E-004	10	..........a	-327.74
	2080	2.98277	-4.14003E-001	3.66880E-004	0.00000E+000	-4.13050E-001	-8.07050E-004	10	..........a	-327.74
	2112	3.02863	-3.82009E-001	3.16750E-004	0.00000E+000	-3.80950E-001	-8.40383E-004	10	..........a	-327.74
	2144	3.0745	-3.49844E-001	2.79890E-004	0.00000E+000	-3.48800E-001	-8.18161E-004	10	..........a	-327.74
	2176	3.12037	-3.17815E-001	2.51700E-004	0.00000E+000	-3.16700E-001	-8.62605E-004	10	..........a	-327.74
	2208	3.16623	-2.85662E-001	2.29230E-004	0.00000E+000	-2.84600E-001	-8.29272E-004	10	..........a	-327.74
	2240	3.2121	-2.53538E-001	2.08824E-004	0.00000E+000	-2.52500E-001	-8.51494E-004	10	..........a	-327.74
	2272	3.25797	-2.21503E-001	1.90011E-004	0.00000E+000	-2.20400E-001	-7.95939E-004	10	..........a	-327.74
	2304	3.30383	-1.89327E-001	1.72966E-004	0.00000E+000	-1.88300E-001	-8.07050E-004	10	..........a	-327.74
	2336	3.3497	-1.57268E-001	1.58871E-004	0.00000E+000	-1.56200E-001	-8.18161E-004	10	..........a	-327.74
	2368	3.39557	-1.25180E-001	1.46840E-004	0.00000E+000	-1.24050E-001	-7.95939E-004	10	..........a	-327.74
	2400	3.44143	-9.30972E-002	1.38819E-004	0.00000E+000	-9.19500E-002	-8.29272E-004	10	..........a	-327.74
	2432	3.4873	-6.10796E-002	1.32745E-004	0.00000E+000	-5.98500E-002	-8.18161E-004	10	..........a	-327.74
	2464	3.53317	-2.88796E-002	1.32450E-004	0.00000E+000	-2.77500E-002	-8.07050E-004	10	..........a	-327.74
	2496	3.57903	3.17336E-003	1.33865E-004	0.00000E+000	4.35001E-003	-7.84828E-004	10	..........a	-327.74
	2528	3.6249	3.52675E-002	1.35694E-004	0.00000E+000	3.64500E-002	-7.95939E-004	10	..........a	-327.74
	2560	3.67077	6.73204E-002	1.33393E-004	0.00000E+000	6.85500E-002	-8.29272E-004	10	..........a	-327.74
	2592	3.71663	9.94616E-002	1.26670E-004	0.00000E+000	1.00650E-001	-8.07050E-004	10	..........a	-327.74
	2624	3.7625	1.31585E-001	1.16113E-004	0.00000E+000	1.32800E-001	-8.95939E-004	10	..........a	-327.74
	2656	3.80837	1.63638E-001	1.06854E-004	0.00000E+000	1.64900E-001	-7.95939E-004	10	..........a	-327.74
	2688	3.85423	1.95762E-001	9.86566E-005	0.00000E+000	1.97000E-001	-7.95939E-004	10	..........a	-327.74
	2720	3.9001	2.27838E-001	9.35256E-005	0.00000E+000	2.29100E-001	-8.62605E-004	10	..........a	-327.74
	2752	3.94597	2.59938E-001	8.82768E-005	0.00000E+000	2.61200E-001	-8.51494E-004	10	..........a	-327.74
	2784	3.99183	2.92032E-001	8.48561E-005	0.00000E+000	2.93300E-001	-8.18161E-004	10	..........a	-327.74
	2816	4.0377	3.24167E-001	8.20253E-005	0.00000E+000	3.25400E-001	-8.29272E-004	10	..........a	-327.74
	2848	4.08357	3.56285E-001	8.13766E-005	0.00000E+000	3.57550E-001	-7.95939E-004	10	..........a	-327.74
	2880	4.12943	3.88332E-001	7.91944E-005	0.00000E+000	3.89650E-001	-8.29272E-004	10	..........a	-327.74
	2912	4.1753	4.20415E-001	7.71303E-005	0.00000E+000	4.21750E-001	-8.62605E-004	10	..........a	-327.74
	2944	4.22117	4.52509E-001	7.55969E-005	0.00000E+000	4.53850E-001	-8.07050E-004	10	..........a	-327.74
	2976	4.26703	4.84579E-001	7.31199E-005	0.00000E+000	4.85950E-001	-8.07050E-004	10	..........a	-327.74
	2990	4.2871	4.98685E-001	7.20583E-005	0.00000E+000	5.00000E-001	-8.07050E-004	10	..........a	-327.74
CURVE2	TABLE
	Pt	T	Vf	Im	Vu	Sig	Ach	IERange	Over	Temp
	#	s	V vs. Ref.	A	V	V	V	#	bits	deg C
	2991	4.28853	4.98679E-001	6.94634E-005	0.00000E+000	5.00000E-001	-8.18161E-004	10	..........a	-327.74