Folder: 2024-09-QuCO2-NCE/data/02-SI/Figures_S9_S11_RDE/14btmapaq-rde (part 10)

File: 1mkcl--5mmolar14btmapaq-nitrogen-rde-600-50mvpers.DTA
EXPLAIN
TAG	LSV
TITLE	LABEL	Linear Sweep Voltammetry	Test &Identifier
DATE	LABEL	1/31/2023	Date
TIME	LABEL	13:10:01	Time
NOTES	NOTES	1	&Notes...

PSTAT	PSTAT	REF3000-21108	Potentiostat
VINIT	POTEN	3.00000E-001	F	&Initial E (V)
VFINAL	POTEN	-1.00000E+000	F	&Final E (V)
SCANRATE	QUANT	4.99999E+001	&Scan Rate (mV/s)
STEPSIZE	QUANT	1.00000E-001	St&ep Size (mV)
IMODE	SELECTOR	0	I/E Range &Mode
IRANGE	QUANT	1.00000E+002	&Max Current (mA)
AREA	QUANT	1.00000E+000	Electrode &Area (cm^2)
ELECTRODETYPE	SELECTOR	0	Electrode Type
STRIPPING	TOGGLE	F	Used for Stripping
POLARITY	TOGGLE	F	Signal Polarity
CONDIT	TWOPARAM	F	1.50000E+001	0.00000E+000	Conditionin&g	Time(s)	E(V)
DELAY	TWOPARAM	F	3.00000E+001	0.00000E+000	Init. De&lay	Time(s)	Stab.(mV/s)
EQDELAY	QUANT	0.00000E+000	Equil. &Time (s)
IRCOMP	SELECTOR	0	IRCom&p
PFCOR	QUANT	5.00000E+001	PF Corr. (ohm)
SAMPLINGMODE	SELECTOR	1	Sampling &Mode
EOC	QUANT	0	Open Circuit (V)
PSTATMODEL	IQUANT	5	Pstat Model
PSTATSECTION	LABEL	REF3000-21108	Pstat Section
PSTATSERIALNO	LABEL	21108	Pstat Serial Number
CTRLMODE	IQUANT	1	Control Mode
ELECTROMETER	IQUANT	0	RE=0 or CS=1
IESTAB	IQUANT	2	I/E Stability
CASPEED	IQUANT	4	Control Amp Speed
CONVENTION	IQUANT	1	Current Convention
ICHRANGE	IQUANT	2	Ich Range
ICHRANGEMODE	TOGGLE	F	Ich Auto Range
ICHOFFSETENABLE	TOGGLE	F	Ich Offset Enable
ICHOFFSET	QUANT	0	Ich Offset (V)
ICHFILTER	IQUANT	2	Ich Filter
VCHRANGE	IQUANT	2	Vch Range
VCHRANGEMODE	TOGGLE	T	Vch Auto Range
VCHOFFSETENABLE	TOGGLE	F	Vch Offset Enable
VCHOFFSET	QUANT	0	Vch Offset (V)
VCHFILTER	IQUANT	2	Vch Filter
ACHRANGE	IQUANT	2	Ach Range
ACHOFFSETENABLE	TOGGLE	F	Ach Offset Enable
ACHOFFSET	QUANT	0	Ach Offset (V)
ACHFILTER	IQUANT	0	Ach Filter
IERANGELOWERLIMIT	IQUANT	2	I/E Range Lower Limit
IERANGEMODE	TOGGLE	T	I/E AutoRange
IERANGE	IQUANT	11	I/E Range
POSFEEDENABLE	TOGGLE	F	Positive Feedback IR Comp
POSFEEDRESISTANCE	QUANT	0	Positive Feedback Resistance (ohm)
ACHSELECT	IQUANT	0	Ach Select
SENSECABLEID	IQUANT	14	Sense Cable ID
PWRCABLEID	IQUANT	7	Power Cable ID
DCCALDATE	LABEL	11/9/2022	DC Calibration Date
ACCALDATE	LABEL	11/9/2022	AC Calibration Date
THERMOSELECT	IQUANT	1	Thermo Select
FRAMEWORKVERSION	LABEL	7.8.2	Framework Version
INSTRUMENTVERSION	LABEL	4.40	Instrument Version
COMPLIANCEVOLTAGE	IQUANT	0	Compliance Voltage
CURVE	TABLE	13001
	Pt	T	Vf	Im	Vu	Sig	Ach	IERange	Over	Cycle	Temp
	#	s	V vs. Ref.	A	V	V	V	#	bits	#	deg C
	0	0.002	2.99763E-001	-3.21237E-005	0.00000E+000	3.00000E-001	-8.62605E-004	11	..........a	0	-327.74
	137	0.276	2.85343E-001	4.87032E-006	0.00000E+000	2.86300E-001	-9.95939E-004	8	..........a	0	-327.74
	274	0.55	2.71743E-001	2.76132E-006	0.00000E+000	2.72600E-001	-9.29272E-004	8	..........a	0	-327.74
	411	0.824	2.57797E-001	2.26553E-006	0.00000E+000	2.58900E-001	-9.29272E-004	8	..........a	0	-327.74
	548	1.098	2.44168E-001	1.94972E-006	0.00000E+000	2.45200E-001	-9.37606E-004	8	..........a	0	-327.74
	685	1.372	2.30277E-001	1.51184E-006	0.00000E+000	2.31500E-001	-9.45939E-004	8	..........a	0	-327.74
	822	1.646	2.16613E-001	1.76224E-006	0.00000E+000	2.17800E-001	-9.20939E-004	8	..........a	0	-327.74
	959	1.92	2.02906E-001	1.46893E-006	0.00000E+000	2.04100E-001	-9.87605E-004	8	..........a	0	-327.74
	1096	2.194	1.89211E-001	1.01355E-006	0.00000E+000	1.90400E-001	-9.70939E-004	8	..........a	0	-327.74
	1233	2.468	1.75531E-001	1.10895E-006	0.00000E+000	1.76700E-001	-9.37606E-004	8	..........a	0	-327.74
	1370	2.742	1.61840E-001	1.10895E-006	0.00000E+000	1.63000E-001	-9.37606E-004	8	..........a	0	-327.74
	1507	3.016	1.48150E-001	6.58990E-007	0.00000E+000	1.49300E-001	-9.70939E-004	8	..........a	0	-327.74
	1644	3.29	1.34442E-001	5.12752E-007	0.00000E+000	1.35600E-001	-9.29272E-004	8	..........a	0	-327.74
	1781	3.564	1.20735E-001	3.27767E-007	0.00000E+000	1.21900E-001	-8.54272E-004	8	..........a	0	-327.74
	1918	3.838	1.07051E-001	5.23168E-007	0.00000E+000	1.08200E-001	-9.04272E-004	8	..........a	0	-327.74
	2055	4.112	9.33464E-002	1.67363E-007	0.00000E+000	9.45000E-002	-9.54272E-004	8	..........a	0	-327.74
	2192	4.386	7.96718E-002	-2.95933E-007	0.00000E+000	8.08000E-002	-9.70939E-004	8	..........a	0	-327.74
	2329	4.66	6.60035E-002	-3.29264E-007	0.00000E+000	6.71000E-002	-8.62605E-004	8	..........a	0	-327.74
	2466	4.934	5.22701E-002	-6.78954E-009	0.00000E+000	5.34000E-002	-9.62605E-004	8	..........a	0	-327.74
	2603	5.208	3.85881E-002	-1.85109E-007	0.00000E+000	3.97000E-002	-9.04272E-004	8	..........a	0	-327.74
	2740	5.482	2.49126E-002	-3.10932E-007	0.00000E+000	2.60000E-002	-9.04272E-004	8	..........a	0	-327.74
	2877	5.756	1.11737E-002	-6.02992E-007	0.00000E+000	1.23000E-002	-9.12605E-004	8	..........a	0	-327.74
	3014	6.03	-2.51932E-003	-1.80526E-007	0.00000E+000	-1.40002E-003	-9.29272E-004	8	..........a	0	-327.74
	3151	6.304	-1.62067E-002	-7.62562E-007	0.00000E+000	-1.51000E-002	-8.54272E-004	8	..........a	0	-327.74
	3288	6.578	-2.98819E-002	-6.44238E-007	0.00000E+000	-2.88000E-002	-8.54272E-004	8	..........a	0	-327.74
	3425	6.852	-4.35686E-002	-9.13661E-008	0.00000E+000	-4.25000E-002	-9.45939E-004	8	..........a	0	-327.74
	3562	7.126	-5.72636E-002	-1.45945E-007	0.00000E+000	-5.62000E-002	-9.20939E-004	8	..........a	0	-327.74
	3699	7.4	-7.09657E-002	-5.50079E-007	0.00000E+000	-6.99000E-002	-8.62605E-004	8	..........a	0	-327.74
	3836	7.674	-8.46549E-002	-6.08825E-007	0.00000E+000	-8.36000E-002	-9.20939E-004	8	..........a	0	-327.74
	3973	7.948	-9.83428E-002	-7.44230E-007	0.00000E+000	-9.73000E-002	-9.04272E-004	8	..........a	0	-327.74
	4110	8.222	-1.12042E-001	-6.71319E-007	0.00000E+000	-1.11000E-001	-9.12605E-004	8	..........a	0	-327.74
	4247	8.496	-1.25726E-001	-5.46330E-007	0.00000E+000	-1.24700E-001	-9.04272E-004	8	..........a	0	-327.74
	4384	8.77	-1.39420E-001	-6.84652E-007	0.00000E+000	-1.38400E-001	-9.54272E-004	8	..........a	0	-327.74
	4521	9.044	-1.53121E-001	-8.81719E-007	0.00000E+000	-1.52100E-001	-9.12605E-004	8	..........a	0	-327.74
	4658	9.318	-1.66820E-001	-6.91735E-007	0.00000E+000	-1.65800E-001	-8.87605E-004	8	..........a	0	-327.74
	4795	9.592	-1.80520E-001	-8.72553E-007	0.00000E+000	-1.79500E-001	-8.79272E-004	8	..........a	0	-327.74
	4932	9.866	-1.94188E-001	-1.14253E-006	0.00000E+000	-1.93200E-001	-9.37606E-004	8	..........a	0	-327.74
	5069	10.14	-2.07892E-001	-1.26336E-006	0.00000E+000	-2.06900E-001	-8.62605E-004	8	..........a	0	-327.74
	5206	10.414	-2.21599E-001	-1.24336E-006	0.00000E+000	-2.20600E-001	-9.37606E-004	8	..........a	0	-327.74
	5343	10.688	-2.35282E-001	-1.51584E-006	0.00000E+000	-2.34300E-001	-9.79272E-004	8	..........a	0	-327.74
	5480	10.962	-2.48971E-001	-1.42334E-006	0.00000E+000	-2.48000E-001	-9.37606E-004	8	..........a	0	-327.74
	5617	11.236	-2.62656E-001	-9.91294E-007	0.00000E+000	-2.61700E-001	-9.29272E-004	8	..........a	0	-327.74
	5754	11.51	-2.76236E-001	-1.62208E-006	0.00000E+000	-2.75400E-001	-9.45939E-004	8	..........a	0	-327.74
	5891	11.784	-2.89894E-001	-1.50417E-006	0.00000E+000	-2.89100E-001	-8.79272E-004	8	..........a	0	-327.74
	6028	12.058	-3.03586E-001	-1.68041E-006	0.00000E+000	-3.02800E-001	-9.54272E-004	8	..........a	0	-327.74
	6165	12.332	-3.17207E-001	-1.95247E-006	0.00000E+000	-3.16500E-001	-9.37606E-004	8	..........a	0	-327.74
	6302	12.606	-3.31136E-001	-2.56658E-006	0.00000E+000	-3.30200E-001	-9.12605E-004	8	..........a	0	-327.74
[...]
	8494	16.99	-5.50012E-001	-3.16850E-004	0.00000E+000	-5.49400E-001	-9.54272E-004	9	..........a	0	-327.74
	8631	17.264	-5.63667E-001	-3.51964E-004	0.00000E+000	-5.63100E-001	-8.95939E-004	9	..........a	0	-327.74
	8768	17.538	-5.77512E-001	-3.72552E-004	0.00000E+000	-5.76800E-001	-9.04272E-004	9	..........a	0	-327.74
	8905	17.812	-5.91154E-001	-3.81039E-004	0.00000E+000	-5.90500E-001	-8.37606E-004	9	..........a	0	-327.74
	9042	18.086	-6.04904E-001	-3.85498E-004	0.00000E+000	-6.04200E-001	-9.37606E-004	9	..........a	0	-327.74
	9179	18.36	-6.18404E-001	-3.90274E-004	0.00000E+000	-6.17900E-001	-9.04272E-004	9	..........a	0	-327.74
	9316	18.634	-6.32254E-001	-3.91812E-004	0.00000E+000	-6.31600E-001	-8.29272E-004	9	..........a	0	-327.74
	9453	18.908	-6.45817E-001	-3.91749E-004	0.00000E+000	-6.45300E-001	-8.70939E-004	9	..........a	0	-327.74
	9590	19.182	-6.59671E-001	-3.92434E-004	0.00000E+000	-6.59000E-001	-8.70939E-004	9	..........a	0	-327.74
	9727	19.456	-6.73362E-001	-3.91908E-004	0.00000E+000	-6.72700E-001	-9.04272E-004	9	..........a	0	-327.74
	9864	19.73	-6.87021E-001	-3.91318E-004	0.00000E+000	-6.86400E-001	-9.37606E-004	9	..........a	0	-327.74
	10001	20.004	-7.00729E-001	-3.91899E-004	0.00000E+000	-7.00100E-001	-9.29272E-004	9	..........a	0	-327.74
	10138	20.278	-7.14417E-001	-3.93353E-004	0.00000E+000	-7.13800E-001	-8.45939E-004	9	..........a	0	-327.74
	10275	20.552	-7.27979E-001	-3.92568E-004	0.00000E+000	-7.27500E-001	-8.87605E-004	9	..........a	0	-327.74
	10412	20.826	-7.41712E-001	-3.90838E-004	0.00000E+000	-7.41200E-001	-9.12605E-004	9	..........a	0	-327.74
	10549	21.1	-7.55542E-001	-3.92158E-004	0.00000E+000	-7.54900E-001	-9.20939E-004	9	..........a	0	-327.74
	10686	21.374	-7.69021E-001	-3.93220E-004	0.00000E+000	-7.68600E-001	-8.95939E-004	9	..........a	0	-327.74
	10823	21.648	-7.82929E-001	-3.90328E-004	0.00000E+000	-7.82300E-001	-9.20939E-004	9	..........a	0	-327.74
	10960	21.922	-7.96629E-001	-3.92254E-004	0.00000E+000	-7.96000E-001	-9.04272E-004	9	..........a	0	-327.74
	11097	22.196	-8.10312E-001	-3.91820E-004	0.00000E+000	-8.09700E-001	-9.29272E-004	9	..........a	0	-327.74
	11234	22.47	-8.23958E-001	-3.93433E-004	0.00000E+000	-8.23400E-001	-9.04272E-004	9	..........a	0	-327.74
	11371	22.744	-8.37608E-001	-3.92426E-004	0.00000E+000	-8.37100E-001	-8.79272E-004	9	..........a	0	-327.74
	11508	23.018	-8.51221E-001	-3.93032E-004	0.00000E+000	-8.50800E-001	-9.37606E-004	9	..........a	0	-327.74
	11645	23.292	-8.65021E-001	-3.92593E-004	0.00000E+000	-8.64500E-001	-8.95939E-004	9	..........a	0	-327.74
	11782	23.566	-8.78721E-001	-3.92710E-004	0.00000E+000	-8.78200E-001	-8.62605E-004	9	..........a	0	-327.74
	11919	23.84	-8.92371E-001	-3.90587E-004	0.00000E+000	-8.91900E-001	-9.12605E-004	9	..........a	0	-327.74
	12056	24.114	-9.05971E-001	-3.92915E-004	0.00000E+000	-9.05600E-001	-8.95939E-004	9	..........a	0	-327.74
	12193	24.388	-9.19896E-001	-3.94519E-004	0.00000E+000	-9.19300E-001	-9.54272E-004	9	..........a	0	-327.74
	12330	24.662	-9.33417E-001	-3.94799E-004	0.00000E+000	-9.33000E-001	-9.20939E-004	9	..........a	0	-327.74
	12467	24.936	-9.47175E-001	-3.92087E-004	0.00000E+000	-9.46700E-001	-9.45939E-004	9	..........a	0	-327.74
	12604	25.21	-9.60917E-001	-3.91824E-004	0.00000E+000	-9.60400E-001	-9.45939E-004	9	..........a	0	-327.74
	12741	25.484	-9.74479E-001	-3.91465E-004	0.00000E+000	-9.74100E-001	-9.45939E-004	9	..........a	0	-327.74
	12878	25.758	-9.88300E-001	-3.91135E-004	0.00000E+000	-9.87800E-001	-9.54272E-004	9	..........a	0	-327.74
	13000	26.002	-1.00033E+000	-3.93023E-004	0.00000E+000	-1.00000E+000	-8.37606E-004	9	..........a	0	-327.74

File: 1mkcl--5mmolar14btmapaq-nitrogen-rde-900-50mvpers.DTA
EXPLAIN
TAG	LSV
TITLE	LABEL	Linear Sweep Voltammetry	Test &Identifier
DATE	LABEL	1/31/2023	Date
TIME	LABEL	13:10:54	Time
NOTES	NOTES	1	&Notes...

PSTAT	PSTAT	REF3000-21108	Potentiostat
VINIT	POTEN	3.00000E-001	F	&Initial E (V)
VFINAL	POTEN	-1.00000E+000	F	&Final E (V)
SCANRATE	QUANT	4.99999E+001	&Scan Rate (mV/s)
STEPSIZE	QUANT	1.00000E-001	St&ep Size (mV)
IMODE	SELECTOR	0	I/E Range &Mode
IRANGE	QUANT	1.00000E+002	&Max Current (mA)
AREA	QUANT	1.00000E+000	Electrode &Area (cm^2)
ELECTRODETYPE	SELECTOR	0	Electrode Type
STRIPPING	TOGGLE	F	Used for Stripping
POLARITY	TOGGLE	F	Signal Polarity
CONDIT	TWOPARAM	F	1.50000E+001	0.00000E+000	Conditionin&g	Time(s)	E(V)
DELAY	TWOPARAM	F	3.00000E+001	0.00000E+000	Init. De&lay	Time(s)	Stab.(mV/s)
EQDELAY	QUANT	0.00000E+000	Equil. &Time (s)
IRCOMP	SELECTOR	0	IRCom&p
PFCOR	QUANT	5.00000E+001	PF Corr. (ohm)
SAMPLINGMODE	SELECTOR	1	Sampling &Mode
EOC	QUANT	0	Open Circuit (V)
PSTATMODEL	IQUANT	5	Pstat Model
PSTATSECTION	LABEL	REF3000-21108	Pstat Section
PSTATSERIALNO	LABEL	21108	Pstat Serial Number
CTRLMODE	IQUANT	1	Control Mode
ELECTROMETER	IQUANT	0	RE=0 or CS=1
IESTAB	IQUANT	2	I/E Stability
CASPEED	IQUANT	4	Control Amp Speed
CONVENTION	IQUANT	1	Current Convention
ICHRANGE	IQUANT	2	Ich Range
ICHRANGEMODE	TOGGLE	F	Ich Auto Range
ICHOFFSETENABLE	TOGGLE	F	Ich Offset Enable
ICHOFFSET	QUANT	0	Ich Offset (V)
ICHFILTER	IQUANT	2	Ich Filter
VCHRANGE	IQUANT	2	Vch Range
VCHRANGEMODE	TOGGLE	T	Vch Auto Range
VCHOFFSETENABLE	TOGGLE	F	Vch Offset Enable
VCHOFFSET	QUANT	0	Vch Offset (V)
VCHFILTER	IQUANT	2	Vch Filter
ACHRANGE	IQUANT	2	Ach Range
ACHOFFSETENABLE	TOGGLE	F	Ach Offset Enable
ACHOFFSET	QUANT	0	Ach Offset (V)
ACHFILTER	IQUANT	0	Ach Filter
IERANGELOWERLIMIT	IQUANT	2	I/E Range Lower Limit
IERANGEMODE	TOGGLE	T	I/E AutoRange
IERANGE	IQUANT	11	I/E Range
POSFEEDENABLE	TOGGLE	F	Positive Feedback IR Comp
POSFEEDRESISTANCE	QUANT	0	Positive Feedback Resistance (ohm)
ACHSELECT	IQUANT	0	Ach Select
SENSECABLEID	IQUANT	14	Sense Cable ID
PWRCABLEID	IQUANT	7	Power Cable ID
DCCALDATE	LABEL	11/9/2022	DC Calibration Date
ACCALDATE	LABEL	11/9/2022	AC Calibration Date
THERMOSELECT	IQUANT	1	Thermo Select
FRAMEWORKVERSION	LABEL	7.8.2	Framework Version
INSTRUMENTVERSION	LABEL	4.40	Instrument Version
COMPLIANCEVOLTAGE	IQUANT	0	Compliance Voltage
CURVE	TABLE	13001
	Pt	T	Vf	Im	Vu	Sig	Ach	IERange	Over	Cycle	Temp
	#	s	V vs. Ref.	A	V	V	V	#	bits	#	deg C
	0	0.002	3.00021E-001	-4.71451E-005	0.00000E+000	3.00000E-001	-2.95939E-004	11	..........a	0	-327.74
	137	0.276	2.85364E-001	5.46569E-006	0.00000E+000	2.86300E-001	-2.45939E-004	8	..........a	0	-327.74
	274	0.55	2.71643E-001	3.65875E-006	0.00000E+000	2.72600E-001	-3.37606E-004	8	..........a	0	-327.74
	411	0.824	2.57897E-001	2.80840E-006	0.00000E+000	2.58900E-001	-5.54272E-004	8	..........a	0	-327.74
	548	1.098	2.44302E-001	2.45635E-006	0.00000E+000	2.45200E-001	-5.20939E-004	8	..........a	0	-327.74
	685	1.372	2.30316E-001	2.29219E-006	0.00000E+000	2.31500E-001	-2.87606E-004	8	..........a	0	-327.74
	822	1.646	2.16635E-001	2.12096E-006	0.00000E+000	2.17800E-001	-1.20939E-004	8	..........a	0	-327.74
	959	1.92	2.02947E-001	1.96180E-006	0.00000E+000	2.04100E-001	-1.29272E-004	8	..........a	0	-327.74
	1096	2.194	1.89235E-001	1.41601E-006	0.00000E+000	1.90400E-001	-2.87606E-004	8	..........a	0	-327.74
	1233	2.468	1.75539E-001	1.10395E-006	0.00000E+000	1.76700E-001	-3.20939E-004	8	..........a	0	-327.74
	1370	2.742	1.61846E-001	1.01271E-006	0.00000E+000	1.63000E-001	-2.70939E-004	8	..........a	0	-327.74
	1507	3.016	1.48159E-001	7.38567E-007	0.00000E+000	1.49300E-001	-1.29272E-004	8	..........a	0	-327.74
	1644	3.29	1.34467E-001	7.16902E-007	0.00000E+000	1.35600E-001	-2.95939E-004	8	..........a	0	-327.74
	1781	3.564	1.20774E-001	4.12760E-007	0.00000E+000	1.21900E-001	-2.29272E-004	8	..........a	0	-327.74
	1918	3.838	1.07066E-001	2.64855E-007	0.00000E+000	1.08200E-001	-3.70939E-004	8	..........a	0	-327.74
	2055	4.112	9.33768E-002	1.64447E-007	0.00000E+000	9.45000E-002	-5.79272E-004	8	..........a	0	-327.74
	2192	4.386	7.97160E-002	1.37366E-007	0.00000E+000	8.08000E-002	-3.12606E-004	8	..........a	0	-327.74
	2329	4.66	6.60068E-002	-7.17843E-008	0.00000E+000	6.71000E-002	-1.62606E-004	8	..........a	0	-327.74
	2466	4.934	5.22964E-002	-3.58428E-007	0.00000E+000	5.34000E-002	-5.12606E-004	8	..........a	0	-327.74
	2603	5.208	3.86006E-002	-2.98016E-007	0.00000E+000	3.97000E-002	-2.62606E-004	8	..........a	0	-327.74
	2740	5.482	2.49189E-002	-3.21764E-007	0.00000E+000	2.60000E-002	-3.54272E-004	8	..........a	0	-327.74
	2877	5.756	1.12006E-002	4.77894E-008	0.00000E+000	1.23000E-002	-4.37606E-004	8	..........a	0	-327.74
	3014	6.03	-2.49457E-003	-5.09249E-007	0.00000E+000	-1.40002E-003	-3.45939E-004	8	..........a	0	-327.74
	3151	6.304	-1.61827E-002	-4.70919E-007	0.00000E+000	-1.51000E-002	-4.79272E-004	8	..........a	0	-327.74
	3288	6.578	-2.98586E-002	-5.08416E-007	0.00000E+000	-2.88000E-002	-2.70939E-004	8	..........a	0	-327.74
	3425	6.852	-4.35540E-002	-1.20530E-007	0.00000E+000	-4.25000E-002	-5.20939E-004	8	..........a	0	-327.74
	3562	7.126	-5.72665E-002	-7.64645E-007	0.00000E+000	-5.62000E-002	-1.62606E-004	8	..........a	0	-327.74
	3699	7.4	-7.09415E-002	-8.31723E-007	0.00000E+000	-6.99000E-002	-5.04272E-004	8	..........a	0	-327.74
	3836	7.674	-8.46328E-002	-5.06333E-007	0.00000E+000	-8.36000E-002	-4.04272E-004	8	..........a	0	-327.74
	3973	7.948	-9.83182E-002	-2.10107E-007	0.00000E+000	-9.73000E-002	-2.29272E-004	8	..........a	0	-327.74
	4110	8.222	-1.12014E-001	-6.65487E-007	0.00000E+000	-1.11000E-001	-2.62606E-004	8	..........a	0	-327.74
	4247	8.496	-1.25728E-001	-1.03921E-006	0.00000E+000	-1.24700E-001	-5.12606E-004	8	..........a	0	-327.74
	4384	8.77	-1.39417E-001	-8.97968E-007	0.00000E+000	-1.38400E-001	-4.12606E-004	8	..........a	0	-327.74
	4521	9.044	-1.53110E-001	-9.20466E-007	0.00000E+000	-1.52100E-001	-1.29272E-004	8	..........a	0	-327.74
	4658	9.318	-1.66795E-001	-9.41298E-007	0.00000E+000	-1.65800E-001	-3.79272E-004	8	..........a	0	-327.74
	4795	9.592	-1.80503E-001	-1.41376E-006	0.00000E+000	-1.79500E-001	-4.20939E-004	8	..........a	0	-327.74
	4932	9.866	-1.94179E-001	-1.09504E-006	0.00000E+000	-1.93200E-001	-3.04272E-004	8	..........a	0	-327.74
	5069	10.14	-2.07872E-001	-1.12462E-006	0.00000E+000	-2.06900E-001	-3.12606E-004	8	..........a	0	-327.74
	5206	10.414	-2.21567E-001	-9.55047E-007	0.00000E+000	-2.20600E-001	-1.04272E-004	8	..........a	0	-327.74
	5343	10.688	-2.35265E-001	-1.41709E-006	0.00000E+000	-2.34300E-001	-4.29272E-004	8	..........a	0	-327.74
	5480	10.962	-2.48949E-001	-1.47542E-006	0.00000E+000	-2.48000E-001	-2.70939E-004	8	..........a	0	-327.74
	5617	11.236	-2.62663E-001	-1.67457E-006	0.00000E+000	-2.61700E-001	-3.62606E-004	8	..........a	0	-327.74
	5754	11.51	-2.76044E-001	-1.64791E-006	0.00000E+000	-2.75400E-001	-3.70939E-004	8	..........a	0	-327.74
	5891	11.784	-2.89823E-001	-1.80415E-006	0.00000E+000	-2.89100E-001	-2.87606E-004	8	..........a	0	-327.74
	6028	12.058	-3.03440E-001	-2.02329E-006	0.00000E+000	-3.02800E-001	-3.04272E-004	8	..........a	0	-327.74
	6165	12.332	-3.17253E-001	-2.02246E-006	0.00000E+000	-3.16500E-001	-5.29272E-004	8	..........a	0	-327.74
	6302	12.606	-3.30923E-001	-2.59991E-006	0.00000E+000	-3.30200E-001	-3.37606E-004	8	..........a	0	-327.74
[...]
	8494	16.99	-5.49812E-001	-3.58336E-004	0.00000E+000	-5.49400E-001	-2.92722E-005	9	..........a	0	-327.74
	8631	17.264	-5.63587E-001	-4.07285E-004	0.00000E+000	-5.63100E-001	-3.12606E-004	9	..........a	0	-327.74
	8768	17.538	-5.77308E-001	-4.35199E-004	0.00000E+000	-5.76800E-001	-4.12606E-004	9	..........a	0	-327.74
	8905	17.812	-5.90975E-001	-4.53990E-004	0.00000E+000	-5.90500E-001	-2.37606E-004	9	..........a	0	-327.74
	9042	18.086	-6.04687E-001	-4.63296E-004	0.00000E+000	-6.04200E-001	-2.87606E-004	9	..........a	0	-327.74
	9179	18.36	-6.18300E-001	-4.68649E-004	0.00000E+000	-6.17900E-001	-2.87606E-004	9	..........a	0	-327.74
	9316	18.634	-6.32021E-001	-4.72953E-004	0.00000E+000	-6.31600E-001	-1.37606E-004	9	..........a	0	-327.74
	9453	18.908	-6.45758E-001	-4.75369E-004	0.00000E+000	-6.45300E-001	-3.29272E-004	9	..........a	0	-327.74
	9590	19.182	-6.59446E-001	-4.75298E-004	0.00000E+000	-6.59000E-001	-9.59389E-005	9	..........a	0	-327.74
	9727	19.456	-6.73092E-001	-4.77057E-004	0.00000E+000	-6.72700E-001	4.06111E-006	9	..........a	0	-327.74
	9864	19.73	-6.86771E-001	-4.77207E-004	0.00000E+000	-6.86400E-001	-3.76056E-005	9	..........a	0	-327.74
	10001	20.004	-7.00521E-001	-4.78971E-004	0.00000E+000	-7.00100E-001	-1.37606E-004	9	..........a	0	-327.74
	10138	20.278	-7.14154E-001	-4.79468E-004	0.00000E+000	-7.13800E-001	-3.76056E-005	9	..........a	0	-327.74
	10275	20.552	-7.27917E-001	-4.79029E-004	0.00000E+000	-7.27500E-001	1.12394E-004	9	..........a	0	-327.74
	10412	20.826	-7.41571E-001	-4.78971E-004	0.00000E+000	-7.41200E-001	1.23945E-005	9	..........a	0	-327.74
	10549	21.1	-7.55258E-001	-4.79159E-004	0.00000E+000	-7.54900E-001	2.90611E-005	9	..........a	0	-327.74
	10686	21.374	-7.68954E-001	-4.80550E-004	0.00000E+000	-7.68600E-001	2.90611E-005	9	..........a	0	-327.74
	10823	21.648	-7.82642E-001	-4.78060E-004	0.00000E+000	-7.82300E-001	-4.59389E-005	9	..........a	0	-327.74
	10960	21.922	-7.96321E-001	-4.81256E-004	0.00000E+000	-7.96000E-001	5.40611E-005	9	..........a	0	-327.74
	11097	22.196	-8.10054E-001	-4.79100E-004	0.00000E+000	-8.09700E-001	-8.76056E-005	9	..........a	0	-327.74
	11234	22.47	-8.23675E-001	-4.83041E-004	0.00000E+000	-8.23400E-001	-1.70939E-004	9	..........a	0	-327.74
	11371	22.744	-8.37350E-001	-4.78862E-004	0.00000E+000	-8.37100E-001	2.07278E-005	9	..........a	0	-327.74
	11508	23.018	-8.51100E-001	-4.79309E-004	0.00000E+000	-8.50800E-001	-3.76056E-005	9	..........a	0	-327.74
	11645	23.292	-8.64712E-001	-4.77529E-004	0.00000E+000	-8.64500E-001	2.90611E-005	9	..........a	0	-327.74
	11782	23.566	-8.78450E-001	-4.81281E-004	0.00000E+000	-8.78200E-001	1.29061E-004	9	..........a	0	-327.74
	11919	23.84	-8.92192E-001	-4.78712E-004	0.00000E+000	-8.91900E-001	-1.79272E-004	9	..........a	0	-327.74
	12056	24.114	-9.05867E-001	-4.79597E-004	0.00000E+000	-9.05600E-001	1.23945E-005	9	..........a	0	-327.74
	12193	24.388	-9.19558E-001	-4.79852E-004	0.00000E+000	-9.19300E-001	1.62394E-004	9	..........a	0	-327.74
	12330	24.662	-9.33200E-001	-4.80600E-004	0.00000E+000	-9.33000E-001	7.90611E-005	9	..........a	0	-327.74
	12467	24.936	-9.46933E-001	-4.80174E-004	0.00000E+000	-9.46700E-001	-9.59389E-005	9	..........a	0	-327.74
	12604	25.21	-9.60642E-001	-4.81056E-004	0.00000E+000	-9.60400E-001	-1.79272E-004	9	..........a	0	-327.74
	12741	25.484	-9.74337E-001	-4.82021E-004	0.00000E+000	-9.74100E-001	4.57278E-005	9	..........a	0	-327.74
	12878	25.758	-9.88004E-001	-4.80479E-004	0.00000E+000	-9.87800E-001	-2.09389E-005	9	..........a	0	-327.74
	13000	26.002	-1.00023E+000	-4.82167E-004	0.00000E+000	-1.00000E+000	-4.27222E-006	9	..........a	0	-327.74