Folder: 2024-09-QuCO2-NCE/data/02-SI/Figures_S9_S11_RDE/15btmapaq-rde (part 11)

File: 1mkcl-15btmapaq-nitrogen-6000mvpers.DTA
EXPLAIN
TAG	CV
TITLE	LABEL	Cyclic Voltammetry	Test &Identifier
DATE	LABEL	1/31/2023	Date
TIME	LABEL	18:21:54	Time
NOTES	NOTES	1	&Notes...

PSTAT	PSTAT	REF3000-21108	Potentiostat
VINIT	POTEN	5.00000E-001	F	Initial &E (V)
VLIMIT1	POTEN	-1.00000E+000	F	Scan Limit &1 (V)
VLIMIT2	POTEN	5.00000E-001	F	Scan Limit &2 (V)
VFINAL	POTEN	5.00000E-001	F	Final &E (V)
SCANRATE	QUANT	5.99999E+003	&Scan Rate (mV/s)
STEPSIZE	QUANT	1.00000E+000	St&ep Size (mV)
CYCLES	IQUANT	1	C&ycles (#)
IMODE	SELECTOR	1	I/E Range &Mode
IRANGE	QUANT	1.00000E+001	&Max Current (mA)
AREA	QUANT	1.00000E+000	Electrode &Area (cm^2)
ELECTRODETYPE	SELECTOR	0	Electrode Type
STRIPPING	TOGGLE	F	Used for Stripping
POLARITY	TOGGLE	F	Signal Polarity
CONDIT	TWOPARAM	F	1.50000E+001	0.00000E+000	Conditionin&g	Time(s)	E(V)
DELAY	TWOPARAM	F	5.00000E+000	0.00000E+000	Init. De&lay	Time(s)	Stab.(mV/s)
EQDELAY	QUANT	0.00000E+000	Equil. &Time (s)
IRCOMP	SELECTOR	0	IRCom&p
PFCOR	QUANT	5.00000E+001	PF Corr. (ohm)
SAMPLINGMODE	SELECTOR	1	Sampling &Mode
EOC	QUANT	0	Open Circuit (V)
PSTATMODEL	IQUANT	5	Pstat Model
PSTATSECTION	LABEL	REF3000-21108	Pstat Section
PSTATSERIALNO	LABEL	21108	Pstat Serial Number
CTRLMODE	IQUANT	1	Control Mode
ELECTROMETER	IQUANT	0	RE=0 or CS=1
IESTAB	IQUANT	2	I/E Stability
CASPEED	IQUANT	4	Control Amp Speed
CONVENTION	IQUANT	1	Current Convention
ICHRANGE	IQUANT	2	Ich Range
ICHRANGEMODE	TOGGLE	F	Ich Auto Range
ICHOFFSETENABLE	TOGGLE	F	Ich Offset Enable
ICHOFFSET	QUANT	0	Ich Offset (V)
ICHFILTER	IQUANT	1	Ich Filter
VCHRANGE	IQUANT	2	Vch Range
VCHRANGEMODE	TOGGLE	F	Vch Auto Range
VCHOFFSETENABLE	TOGGLE	F	Vch Offset Enable
VCHOFFSET	QUANT	0	Vch Offset (V)
VCHFILTER	IQUANT	1	Vch Filter
ACHRANGE	IQUANT	2	Ach Range
ACHOFFSETENABLE	TOGGLE	F	Ach Offset Enable
ACHOFFSET	QUANT	0	Ach Offset (V)
ACHFILTER	IQUANT	0	Ach Filter
IERANGELOWERLIMIT	IQUANT	2	I/E Range Lower Limit
IERANGEMODE	TOGGLE	F	I/E AutoRange
IERANGE	IQUANT	10	I/E Range
POSFEEDENABLE	TOGGLE	F	Positive Feedback IR Comp
POSFEEDRESISTANCE	QUANT	0	Positive Feedback Resistance (ohm)
ACHSELECT	IQUANT	0	Ach Select
SENSECABLEID	IQUANT	14	Sense Cable ID
PWRCABLEID	IQUANT	7	Power Cable ID
DCCALDATE	LABEL	11/9/2022	DC Calibration Date
ACCALDATE	LABEL	11/9/2022	AC Calibration Date
THERMOSELECT	IQUANT	1	Thermo Select
FRAMEWORKVERSION	LABEL	7.8.2	Framework Version
INSTRUMENTVERSION	LABEL	4.40	Instrument Version
COMPLIANCEVOLTAGE	IQUANT	0	Compliance Voltage
CURVE1	TABLE
	Pt	T	Vf	Im	Vu	Sig	Ach	IERange	Over	Temp
	#	s	V vs. Ref.	A	V	V	V	#	bits	deg C
	0	0.000167	4.98691E-001	3.21315E-005	0.00000E+000	5.00000E-001	-6.29272E-004	10	..........a	-327.74
	32	0.0055	4.66591E-001	-5.96707E-006	0.00000E+000	4.68000E-001	-9.29272E-004	10	..........a	-327.74
	64	0.010833	4.34641E-001	-1.04787E-005	0.00000E+000	4.36000E-001	-8.29272E-004	10	..........a	-327.74
	96	0.016167	4.02641E-001	-1.79982E-005	0.00000E+000	4.04000E-001	-7.29272E-004	10	..........a	-327.74
	128	0.0215	3.70741E-001	-2.60190E-005	0.00000E+000	3.72000E-001	-5.29272E-004	10	..........a	-327.74
	160	0.026833	3.38791E-001	-2.95280E-005	0.00000E+000	3.40000E-001	-8.29272E-004	10	..........a	-327.74
	192	0.032167	3.06791E-001	-3.25358E-005	0.00000E+000	3.08000E-001	-8.29272E-004	10	..........a	-327.74
	224	0.0375	2.74641E-001	-3.25358E-005	0.00000E+000	2.76000E-001	-7.29272E-004	10	..........a	-327.74
	256	0.042833	2.42791E-001	-3.55436E-005	0.00000E+000	2.44000E-001	-7.29272E-004	10	..........a	-327.74
	288	0.048167	2.10741E-001	-3.95540E-005	0.00000E+000	2.12000E-001	-7.29272E-004	10	..........a	-327.74
	320	0.0535	1.78791E-001	-4.55695E-005	0.00000E+000	1.80000E-001	-7.29272E-004	10	..........a	-327.74
	352	0.058833	1.46841E-001	-4.50682E-005	0.00000E+000	1.48000E-001	-7.29272E-004	10	..........a	-327.74
	384	0.064167	1.14791E-001	-5.00812E-005	0.00000E+000	1.16000E-001	-7.29272E-004	10	..........a	-327.74
	416	0.0695	8.27910E-002	-5.05825E-005	0.00000E+000	8.40000E-002	-9.29272E-004	10	..........a	-327.74
	448	0.074833	5.07910E-002	-5.25877E-005	0.00000E+000	5.20000E-002	-8.29272E-004	10	..........a	-327.74
	480	0.080167	1.88410E-002	-5.30890E-005	0.00000E+000	2.00000E-002	-7.29272E-004	10	..........a	-327.74
	512	0.0855	-1.31590E-002	-5.65981E-005	0.00000E+000	-1.20000E-002	-8.29272E-004	10	..........a	-327.74
	544	0.090833	-4.51590E-002	-5.35903E-005	0.00000E+000	-4.40000E-002	-7.29272E-004	10	..........a	-327.74
	576	0.096167	-7.71090E-002	-5.45929E-005	0.00000E+000	-7.60000E-002	-6.29272E-004	10	..........a	-327.74
	608	0.1015	-1.09109E-001	-5.91046E-005	0.00000E+000	-1.08000E-001	-8.29272E-004	10	..........a	-327.74
	640	0.106833	-1.41159E-001	-6.06084E-005	0.00000E+000	-1.40000E-001	-7.29272E-004	10	..........a	-327.74
	672	0.112167	-1.73109E-001	-6.11097E-005	0.00000E+000	-1.72000E-001	-8.29272E-004	10	..........a	-327.74
	704	0.1175	-2.05109E-001	-6.76266E-005	0.00000E+000	-2.04000E-001	-9.29272E-004	10	..........a	-327.74
	736	0.122833	-2.37109E-001	-7.16370E-005	0.00000E+000	-2.36000E-001	-7.29272E-004	10	..........a	-327.74
	768	0.128167	-2.69109E-001	-7.81538E-005	0.00000E+000	-2.68000E-001	-6.29272E-004	10	..........a	-327.74
	800	0.1335	-3.00959E-001	-8.16629E-005	0.00000E+000	-3.00000E-001	-8.29272E-004	10	..........a	-327.74
	832	0.138833	-3.33059E-001	-9.11876E-005	0.00000E+000	-3.32000E-001	-7.29272E-004	10	..........a	-327.74
	864	0.144167	-3.64959E-001	-1.04723E-004	0.00000E+000	-3.64000E-001	-7.29272E-004	10	..........a	-327.74
	896	0.1495	-3.97059E-001	-1.25276E-004	0.00000E+000	-3.96000E-001	-7.29272E-004	10	..........a	-327.74
	928	0.154833	-4.29009E-001	-1.72398E-004	0.00000E+000	-4.28000E-001	-7.29272E-004	10	..........a	-327.74
	960	0.160167	-4.60959E-001	-2.78673E-004	0.00000E+000	-4.60000E-001	-6.29272E-004	10	..........a	-327.74
	992	0.1655	-4.93059E-001	-3.99485E-004	0.00000E+000	-4.92000E-001	-9.29272E-004	10	..........a	-327.74
	1024	0.170833	-5.25059E-001	-5.49874E-004	0.00000E+000	-5.24000E-001	-7.29272E-004	10	..........a	-327.74
	1056	0.176167	-5.57059E-001	-8.43133E-004	0.00000E+000	-5.56000E-001	-9.29272E-004	10	..........a	-327.74
	1088	0.1815	-5.88959E-001	-1.16446E-003	0.00000E+000	-5.88000E-001	-8.29272E-004	10	..........a	-327.74
	1120	0.186833	-6.20959E-001	-1.28979E-003	0.00000E+000	-6.20000E-001	-7.29272E-004	10	..........a	-327.74
	1152	0.192167	-6.52859E-001	-1.23916E-003	0.00000E+000	-6.52000E-001	-9.29272E-004	10	..........a	-327.74
	1184	0.1975	-6.85009E-001	-1.13188E-003	0.00000E+000	-6.84000E-001	-7.29272E-004	10	..........a	-327.74
	1216	0.202833	-7.16759E-001	-1.03463E-003	0.00000E+000	-7.16000E-001	-6.29272E-004	10	..........a	-327.74
	1248	0.208167	-7.48809E-001	-9.60938E-004	0.00000E+000	-7.48000E-001	-7.29272E-004	10	..........a	-327.74
	1280	0.2135	-7.80859E-001	-8.95268E-004	0.00000E+000	-7.80000E-001	-8.29272E-004	10	..........a	-327.74
	1312	0.218833	-8.12859E-001	-8.44637E-004	0.00000E+000	-8.12000E-001	-8.29272E-004	10	..........a	-327.74
	1344	0.224167	-8.44759E-001	-7.97014E-004	0.00000E+000	-8.44000E-001	-8.29272E-004	10	..........a	-327.74
	1376	0.2295	-8.76709E-001	-7.56910E-004	0.00000E+000	-8.76000E-001	-8.29272E-004	10	..........a	-327.74
	1408	0.234833	-9.08709E-001	-7.23824E-004	0.00000E+000	-9.08000E-001	-7.29272E-004	10	..........a	-327.74
	1440	0.240167	-9.40759E-001	-6.93245E-004	0.00000E+000	-9.40000E-001	-9.29272E-004	10	..........a	-327.74
[...]
	1984	0.330833	-5.17059E-001	2.51198E-004	0.00000E+000	-5.16000E-001	-8.29272E-004	10	..........a	-327.74
	2016	0.336167	-4.84959E-001	3.71008E-004	0.00000E+000	-4.84000E-001	-8.29272E-004	10	..........a	-327.74
	2048	0.3415	-4.53159E-001	4.80291E-004	0.00000E+000	-4.52000E-001	-9.29272E-004	10	..........a	-327.74
	2080	0.346833	-4.20959E-001	5.21899E-004	0.00000E+000	-4.20000E-001	-6.29272E-004	10	..........a	-327.74
	2112	0.352167	-3.89159E-001	5.05857E-004	0.00000E+000	-3.88000E-001	-8.29272E-004	10	..........a	-327.74
	2144	0.3575	-3.57109E-001	4.87309E-004	0.00000E+000	-3.56000E-001	-7.29272E-004	10	..........a	-327.74
	2176	0.362833	-3.25059E-001	4.67759E-004	0.00000E+000	-3.24000E-001	-7.29272E-004	10	..........a	-327.74
	2208	0.368167	-2.93109E-001	4.58234E-004	0.00000E+000	-2.92000E-001	-8.29272E-004	10	..........a	-327.74
	2240	0.3735	-2.61109E-001	4.46203E-004	0.00000E+000	-2.60000E-001	-6.29272E-004	10	..........a	-327.74
	2272	0.378833	-2.29059E-001	4.33670E-004	0.00000E+000	-2.28000E-001	-8.29272E-004	10	..........a	-327.74
	2304	0.384167	-1.97109E-001	4.07102E-004	0.00000E+000	-1.96000E-001	-8.29272E-004	10	..........a	-327.74
	2336	0.3895	-1.65109E-001	3.88052E-004	0.00000E+000	-1.64000E-001	-8.29272E-004	10	..........a	-327.74
	2368	0.394833	-1.33209E-001	3.59478E-004	0.00000E+000	-1.32000E-001	-8.29272E-004	10	..........a	-327.74
	2400	0.400167	-1.01209E-001	3.39928E-004	0.00000E+000	-1.00000E-001	-8.29272E-004	10	..........a	-327.74
	2432	0.4055	-6.91090E-002	3.21881E-004	0.00000E+000	-6.80000E-002	-8.29272E-004	10	..........a	-327.74
	2464	0.410833	-3.72090E-002	3.07845E-004	0.00000E+000	-3.60000E-002	-8.29272E-004	10	..........a	-327.74
	2496	0.416167	-5.20900E-003	2.97318E-004	0.00000E+000	-4.00001E-003	-8.29272E-004	10	..........a	-327.74
	2528	0.4215	2.67910E-002	2.88796E-004	0.00000E+000	2.80000E-002	-9.29272E-004	10	..........a	-327.74
	2560	0.426833	5.88410E-002	2.86289E-004	0.00000E+000	6.00000E-002	-9.29272E-004	10	..........a	-327.74
	2592	0.432167	9.07910E-002	2.87793E-004	0.00000E+000	9.20000E-002	-8.29272E-004	10	..........a	-327.74
	2624	0.4375	1.22841E-001	2.91803E-004	0.00000E+000	1.24000E-001	-8.29272E-004	10	..........a	-327.74
	2656	0.442833	1.54791E-001	2.94310E-004	0.00000E+000	1.56000E-001	-8.29272E-004	10	..........a	-327.74
	2688	0.448167	1.86841E-001	3.03333E-004	0.00000E+000	1.88000E-001	-8.29272E-004	10	..........a	-327.74
	2720	0.4535	2.18841E-001	3.05338E-004	0.00000E+000	2.20000E-001	-8.29272E-004	10	..........a	-327.74
	2752	0.458833	2.50741E-001	2.98822E-004	0.00000E+000	2.52000E-001	-1.02927E-003	10	..........a	-327.74
	2784	0.464167	2.82791E-001	2.86790E-004	0.00000E+000	2.84000E-001	-1.02927E-003	10	..........a	-327.74
	2816	0.4695	3.14791E-001	2.67741E-004	0.00000E+000	3.16000E-001	-8.29272E-004	10	..........a	-327.74
	2848	0.474833	3.46741E-001	2.58216E-004	0.00000E+000	3.48000E-001	-8.29272E-004	10	..........a	-327.74
	2880	0.480167	3.78791E-001	2.43679E-004	0.00000E+000	3.80000E-001	-7.29272E-004	10	..........a	-327.74
	2912	0.4855	4.10691E-001	2.32650E-004	0.00000E+000	4.12000E-001	-8.29272E-004	10	..........a	-327.74
	2944	0.490833	4.42691E-001	2.25131E-004	0.00000E+000	4.44000E-001	-9.29272E-004	10	..........a	-327.74
	2976	0.496167	4.74591E-001	2.21622E-004	0.00000E+000	4.76000E-001	-8.29272E-004	10	..........a	-327.74
	3000	0.500167	4.98491E-001	2.18614E-004	0.00000E+000	5.00000E-001	-7.29272E-004	10	..........a	-327.74
CURVE2	TABLE
	Pt	T	Vf	Im	Vu	Sig	Ach	IERange	Over	Temp
	#	s	V vs. Ref.	A	V	V	V	#	bits	deg C
	3001	0.500333	4.98591E-001	2.06583E-004	0.00000E+000	5.00000E-001	-8.29272E-004	10	..........a	-327.74

File: 1mkcl-15btmapaq-nitrogen-7000mvpers.DTA
EXPLAIN
TAG	CV
TITLE	LABEL	Cyclic Voltammetry	Test &Identifier
DATE	LABEL	1/31/2023	Date
TIME	LABEL	18:22:04	Time
NOTES	NOTES	1	&Notes...

PSTAT	PSTAT	REF3000-21108	Potentiostat
VINIT	POTEN	5.00000E-001	F	Initial &E (V)
VLIMIT1	POTEN	-1.00000E+000	F	Scan Limit &1 (V)
VLIMIT2	POTEN	5.00000E-001	F	Scan Limit &2 (V)
VFINAL	POTEN	5.00000E-001	F	Final &E (V)
SCANRATE	QUANT	6.66665E+003	&Scan Rate (mV/s)
STEPSIZE	QUANT	1.00000E+000	St&ep Size (mV)
CYCLES	IQUANT	1	C&ycles (#)
IMODE	SELECTOR	1	I/E Range &Mode
IRANGE	QUANT	1.00000E+001	&Max Current (mA)
AREA	QUANT	1.00000E+000	Electrode &Area (cm^2)
ELECTRODETYPE	SELECTOR	0	Electrode Type
STRIPPING	TOGGLE	F	Used for Stripping
POLARITY	TOGGLE	F	Signal Polarity
CONDIT	TWOPARAM	F	1.50000E+001	0.00000E+000	Conditionin&g	Time(s)	E(V)
DELAY	TWOPARAM	F	5.00000E+000	0.00000E+000	Init. De&lay	Time(s)	Stab.(mV/s)
EQDELAY	QUANT	0.00000E+000	Equil. &Time (s)
IRCOMP	SELECTOR	0	IRCom&p
PFCOR	QUANT	5.00000E+001	PF Corr. (ohm)
SAMPLINGMODE	SELECTOR	1	Sampling &Mode
EOC	QUANT	0	Open Circuit (V)
PSTATMODEL	IQUANT	5	Pstat Model
PSTATSECTION	LABEL	REF3000-21108	Pstat Section
PSTATSERIALNO	LABEL	21108	Pstat Serial Number
CTRLMODE	IQUANT	1	Control Mode
ELECTROMETER	IQUANT	0	RE=0 or CS=1
IESTAB	IQUANT	2	I/E Stability
CASPEED	IQUANT	4	Control Amp Speed
CONVENTION	IQUANT	1	Current Convention
ICHRANGE	IQUANT	2	Ich Range
ICHRANGEMODE	TOGGLE	F	Ich Auto Range
ICHOFFSETENABLE	TOGGLE	F	Ich Offset Enable
ICHOFFSET	QUANT	0	Ich Offset (V)
ICHFILTER	IQUANT	1	Ich Filter
VCHRANGE	IQUANT	2	Vch Range
VCHRANGEMODE	TOGGLE	F	Vch Auto Range
VCHOFFSETENABLE	TOGGLE	F	Vch Offset Enable
VCHOFFSET	QUANT	0	Vch Offset (V)
VCHFILTER	IQUANT	1	Vch Filter
ACHRANGE	IQUANT	2	Ach Range
ACHOFFSETENABLE	TOGGLE	F	Ach Offset Enable
ACHOFFSET	QUANT	0	Ach Offset (V)
ACHFILTER	IQUANT	0	Ach Filter
IERANGELOWERLIMIT	IQUANT	2	I/E Range Lower Limit
IERANGEMODE	TOGGLE	F	I/E AutoRange
IERANGE	IQUANT	10	I/E Range
POSFEEDENABLE	TOGGLE	F	Positive Feedback IR Comp
POSFEEDRESISTANCE	QUANT	0	Positive Feedback Resistance (ohm)
ACHSELECT	IQUANT	0	Ach Select
SENSECABLEID	IQUANT	14	Sense Cable ID
PWRCABLEID	IQUANT	7	Power Cable ID
DCCALDATE	LABEL	11/9/2022	DC Calibration Date
ACCALDATE	LABEL	11/9/2022	AC Calibration Date
THERMOSELECT	IQUANT	1	Thermo Select
FRAMEWORKVERSION	LABEL	7.8.2	Framework Version
INSTRUMENTVERSION	LABEL	4.40	Instrument Version
COMPLIANCEVOLTAGE	IQUANT	0	Compliance Voltage
CURVE1	TABLE
	Pt	T	Vf	Im	Vu	Sig	Ach	IERange	Over	Temp
	#	s	V vs. Ref.	A	V	V	V	#	bits	deg C
	0	0.00015	4.98391E-001	4.51652E-005	0.00000E+000	5.00000E-001	-1.12927E-003	10	...........	-0.07
	30	0.00465	4.66891E-001	6.06406E-006	0.00000E+000	4.68500E-001	-1.22927E-003	10	...........	-0.07
	60	0.00915	4.35491E-001	-7.97226E-006	0.00000E+000	4.37000E-001	-1.42927E-003	10	...........	-0.07
	90	0.01365	4.04291E-001	-1.59930E-005	0.00000E+000	4.05500E-001	-1.22927E-003	10	...........	-0.07
	120	0.01815	3.72791E-001	-2.20086E-005	0.00000E+000	3.74000E-001	-7.29272E-004	10	...........	-0.07
	150	0.02265	3.40991E-001	-2.50164E-005	0.00000E+000	3.42500E-001	-1.32927E-003	10	...........	-0.07
	180	0.02715	3.09491E-001	-3.20345E-005	0.00000E+000	3.11000E-001	-1.02927E-003	10	...........	-0.07
	210	0.03165	2.78091E-001	-4.20605E-005	0.00000E+000	2.79500E-001	-1.22927E-003	10	...........	-0.07
	240	0.03615	2.46491E-001	-4.20605E-005	0.00000E+000	2.48000E-001	-1.02927E-003	10	...........	-0.07
	270	0.04065	2.15091E-001	-4.40656E-005	0.00000E+000	2.16500E-001	-1.22927E-003	10	...........	-0.07
	300	0.04515	1.83391E-001	-4.40656E-005	0.00000E+000	1.85000E-001	-1.42927E-003	10	...........	-0.07
	330	0.04965	1.52091E-001	-4.60708E-005	0.00000E+000	1.53500E-001	-9.29272E-004	10	...........	-0.07
	360	0.05415	1.20791E-001	-5.81020E-005	0.00000E+000	1.22000E-001	-7.29272E-004	10	...........	-0.07
	390	0.05865	8.89910E-002	-5.70994E-005	0.00000E+000	9.05000E-002	-1.02927E-003	10	...........	-0.07
	420	0.06315	5.75910E-002	-5.60968E-005	0.00000E+000	5.90000E-002	-1.02927E-003	10	...........	-0.07
	450	0.06765	2.62910E-002	-5.60968E-005	0.00000E+000	2.75000E-002	-1.02927E-003	10	...........	-0.07
	480	0.07215	-5.20900E-003	-5.60968E-005	0.00000E+000	-4.00001E-003	-1.02927E-003	10	...........	-0.07
	510	0.07665	-3.71090E-002	-6.01071E-005	0.00000E+000	-3.55000E-002	-1.22927E-003	10	...........	-0.07
	540	0.08115	-6.84090E-002	-6.51201E-005	0.00000E+000	-6.70000E-002	-1.02927E-003	10	...........	-0.07
	570	0.08565	-9.98090E-002	-6.51201E-005	0.00000E+000	-9.85000E-002	-1.32927E-003	10	...........	-0.07
	600	0.09015	-1.31409E-001	-6.41175E-005	0.00000E+000	-1.30000E-001	-1.32927E-003	10	...........	-0.07
	630	0.09465	-1.62709E-001	-6.61227E-005	0.00000E+000	-1.61500E-001	-1.42927E-003	10	...........	-0.07
	660	0.09915	-1.94309E-001	-7.41435E-005	0.00000E+000	-1.93000E-001	-1.32927E-003	10	...........	-0.07
	690	0.10365	-2.25909E-001	-7.31409E-005	0.00000E+000	-2.24500E-001	-1.42927E-003	10	...........	-0.07
	720	0.10815	-2.57009E-001	-7.81538E-005	0.00000E+000	-2.56000E-001	-1.02927E-003	10	...........	-0.07
	750	0.11265	-2.88809E-001	-8.91824E-005	0.00000E+000	-2.87500E-001	-1.12927E-003	10	...........	-0.07
	780	0.11715	-3.20409E-001	-9.31927E-005	0.00000E+000	-3.19000E-001	-1.22927E-003	10	...........	-0.07
	810	0.12165	-3.51709E-001	-1.10237E-004	0.00000E+000	-3.50500E-001	-1.02927E-003	10	...........	-0.07
	840	0.12615	-3.83109E-001	-1.22268E-004	0.00000E+000	-3.82000E-001	-9.29272E-004	10	...........	-0.07
	870	0.13065	-4.14709E-001	-1.58361E-004	0.00000E+000	-4.13500E-001	-1.02927E-003	10	...........	-0.07
	900	0.13515	-4.46309E-001	-2.42579E-004	0.00000E+000	-4.45000E-001	-1.32927E-003	10	...........	-0.07
	930	0.13965	-4.77609E-001	-3.62891E-004	0.00000E+000	-4.76500E-001	-1.22927E-003	10	...........	-0.07
	960	0.14415	-5.09209E-001	-4.96236E-004	0.00000E+000	-5.08000E-001	-1.12927E-003	10	...........	-0.07
	990	0.14865	-5.40809E-001	-7.16806E-004	0.00000E+000	-5.39500E-001	-1.32927E-003	10	...........	-0.07
	1020	0.15315	-5.72109E-001	-1.07975E-003	0.00000E+000	-5.71000E-001	-1.22927E-003	10	...........	-0.07
	1050	0.15765	-6.03609E-001	-1.34543E-003	0.00000E+000	-6.02500E-001	-1.12927E-003	10	...........	-0.07
	1080	0.16215	-6.34909E-001	-1.39356E-003	0.00000E+000	-6.34000E-001	-8.29272E-004	10	...........	-0.07
	1110	0.16665	-6.66309E-001	-1.30733E-003	0.00000E+000	-6.65500E-001	-8.29272E-004	10	...........	-0.07
	1140	0.17115	-6.97909E-001	-1.20306E-003	0.00000E+000	-6.97000E-001	-1.02927E-003	10	...........	-0.07
	1170	0.17565	-7.29609E-001	-1.10581E-003	0.00000E+000	-7.28500E-001	-1.32927E-003	10	...........	-0.07
	1200	0.18015	-7.61309E-001	-1.03062E-003	0.00000E+000	-7.60000E-001	-1.42927E-003	10	...........	-0.07
	1230	0.18465	-7.92809E-001	-9.67455E-004	0.00000E+000	-7.91500E-001	-1.12927E-003	10	...........	-0.07
	1260	0.18915	-8.23909E-001	-9.15320E-004	0.00000E+000	-8.23000E-001	-9.29272E-004	10	...........	-0.07
	1290	0.19365	-8.55709E-001	-8.67195E-004	0.00000E+000	-8.54500E-001	-1.42927E-003	10	...........	-0.07
	1320	0.19815	-8.86809E-001	-8.22079E-004	0.00000E+000	-8.86000E-001	-1.02927E-003	10	...........	-0.07
	1350	0.20265	-9.18509E-001	-7.82977E-004	0.00000E+000	-9.17500E-001	-1.22927E-003	10	...........	-0.07
	1380	0.20715	-9.50009E-001	-7.52900E-004	0.00000E+000	-9.49000E-001	-1.32927E-003	10	...........	-0.07
[...]
	1890	0.28365	-5.17609E-001	2.68744E-004	0.00000E+000	-5.16400E-001	-1.42927E-003	10	...........	-0.07
	1920	0.28815	-4.86009E-001	4.04094E-004	0.00000E+000	-4.84900E-001	-1.02927E-003	10	...........	-0.07
	1950	0.29265	-4.54509E-001	5.15382E-004	0.00000E+000	-4.53400E-001	-1.22927E-003	10	...........	-0.07
	1980	0.29715	-4.23009E-001	5.61501E-004	0.00000E+000	-4.21900E-001	-1.42927E-003	10	...........	-0.07
	2010	0.30165	-3.91509E-001	5.58493E-004	0.00000E+000	-3.90400E-001	-1.02927E-003	10	...........	-0.07
	2040	0.30615	-3.59909E-001	5.37439E-004	0.00000E+000	-3.58900E-001	-1.22927E-003	10	...........	-0.07
	2070	0.31065	-3.28409E-001	5.14379E-004	0.00000E+000	-3.27400E-001	-7.29272E-004	10	...........	-0.07
	2100	0.31515	-2.97109E-001	5.03351E-004	0.00000E+000	-2.95900E-001	-1.02927E-003	10	...........	-0.07
	2130	0.31965	-2.65709E-001	4.97335E-004	0.00000E+000	-2.64400E-001	-1.22927E-003	10	...........	-0.07
	2160	0.32415	-2.34209E-001	4.80291E-004	0.00000E+000	-2.32900E-001	-1.32927E-003	10	...........	-0.07
	2190	0.32865	-2.02709E-001	4.61242E-004	0.00000E+000	-2.01400E-001	-1.22927E-003	10	...........	-0.07
	2220	0.33315	-1.71209E-001	4.35174E-004	0.00000E+000	-1.69900E-001	-1.22927E-003	10	...........	-0.07
	2250	0.33765	-1.39709E-001	4.08104E-004	0.00000E+000	-1.38400E-001	-1.02927E-003	10	...........	-0.07
	2280	0.34215	-1.08209E-001	3.86047E-004	0.00000E+000	-1.06900E-001	-1.12927E-003	10	...........	-0.07
	2310	0.34665	-7.68090E-002	3.60982E-004	0.00000E+000	-7.54000E-002	-1.02927E-003	10	...........	-0.07
	2340	0.35115	-4.52090E-002	3.49954E-004	0.00000E+000	-4.39000E-002	-1.32927E-003	10	...........	-0.07
	2370	0.35565	-1.39090E-002	3.27897E-004	0.00000E+000	-1.24000E-002	-9.29272E-004	10	...........	-0.07
	2400	0.36015	1.75910E-002	3.25892E-004	0.00000E+000	1.91000E-002	-1.12927E-003	10	...........	-0.07
	2430	0.36465	4.91910E-002	3.19876E-004	0.00000E+000	5.06000E-002	-1.32927E-003	10	...........	-0.07
	2460	0.36915	8.08910E-002	3.15866E-004	0.00000E+000	8.21000E-002	-1.02927E-003	10	...........	-0.07
	2490	0.37365	1.12291E-001	3.15866E-004	0.00000E+000	1.13600E-001	-1.22927E-003	10	...........	-0.07
	2520	0.37815	1.43591E-001	3.28899E-004	0.00000E+000	1.45100E-001	-1.22927E-003	10	...........	-0.07
	2550	0.38265	1.75291E-001	3.36920E-004	0.00000E+000	1.76600E-001	-1.02927E-003	10	...........	-0.07
	2580	0.38715	2.06791E-001	3.44941E-004	0.00000E+000	2.08100E-001	-1.22927E-003	10	...........	-0.07
	2610	0.39165	2.38291E-001	3.37923E-004	0.00000E+000	2.39600E-001	-8.29272E-004	10	...........	-0.07
	2640	0.39615	2.69591E-001	3.27897E-004	0.00000E+000	2.71100E-001	-1.02927E-003	10	...........	-0.07
	2670	0.40065	3.01091E-001	3.13860E-004	0.00000E+000	3.02600E-001	-1.42927E-003	10	...........	-0.07
	2700	0.40515	3.32691E-001	2.95814E-004	0.00000E+000	3.34100E-001	-1.22927E-003	10	...........	-0.07
	2730	0.40965	3.64091E-001	2.82780E-004	0.00000E+000	3.65600E-001	-1.02927E-003	10	...........	-0.07
	2760	0.41415	3.95691E-001	2.66738E-004	0.00000E+000	3.97100E-001	-1.22927E-003	10	...........	-0.07
	2790	0.41865	4.27191E-001	2.58718E-004	0.00000E+000	4.28600E-001	-1.22927E-003	10	...........	-0.07
	2820	0.42315	4.58591E-001	2.56713E-004	0.00000E+000	4.60100E-001	-1.62927E-003	10	...........	-0.07
	2850	0.42765	4.90091E-001	2.39668E-004	0.00000E+000	4.91600E-001	-1.02927E-003	10	...........	-0.07
	2858	0.42885	4.98491E-001	2.44681E-004	0.00000E+000	5.00000E-001	-1.32927E-003	10	...........	-0.07
CURVE2	TABLE
	Pt	T	Vf	Im	Vu	Sig	Ach	IERange	Over	Temp
	#	s	V vs. Ref.	A	V	V	V	#	bits	deg C
	2859	0.429	4.98591E-001	2.42676E-004	0.00000E+000	5.00000E-001	-1.12927E-003	10	...........	-0.07