Folder: 2024-09-QuCO2-NCE/data/02-SI/Figures_S9_S11_RDE/15btmapaq-rde (part 5)

File: 1mkcl-15btmapaq-nitrogen-200mvpers.DTA
EXPLAIN
TAG	CV
TITLE	LABEL	Cyclic Voltammetry	Test &Identifier
DATE	LABEL	1/31/2023	Date
TIME	LABEL	18:17:47	Time
NOTES	NOTES	1	&Notes...

PSTAT	PSTAT	REF3000-21108	Potentiostat
VINIT	POTEN	5.00000E-001	F	Initial &E (V)
VLIMIT1	POTEN	-1.00000E+000	F	Scan Limit &1 (V)
VLIMIT2	POTEN	5.00000E-001	F	Scan Limit &2 (V)
VFINAL	POTEN	5.00000E-001	F	Final &E (V)
SCANRATE	QUANT	2.00000E+002	&Scan Rate (mV/s)
STEPSIZE	QUANT	1.00000E+000	St&ep Size (mV)
CYCLES	IQUANT	1	C&ycles (#)
IMODE	SELECTOR	1	I/E Range &Mode
IRANGE	QUANT	1.00000E+001	&Max Current (mA)
AREA	QUANT	1.00000E+000	Electrode &Area (cm^2)
ELECTRODETYPE	SELECTOR	0	Electrode Type
STRIPPING	TOGGLE	F	Used for Stripping
POLARITY	TOGGLE	F	Signal Polarity
CONDIT	TWOPARAM	F	1.50000E+001	0.00000E+000	Conditionin&g	Time(s)	E(V)
DELAY	TWOPARAM	F	5.00000E+000	0.00000E+000	Init. De&lay	Time(s)	Stab.(mV/s)
EQDELAY	QUANT	0.00000E+000	Equil. &Time (s)
IRCOMP	SELECTOR	0	IRCom&p
PFCOR	QUANT	5.00000E+001	PF Corr. (ohm)
SAMPLINGMODE	SELECTOR	1	Sampling &Mode
EOC	QUANT	0	Open Circuit (V)
PSTATMODEL	IQUANT	5	Pstat Model
PSTATSECTION	LABEL	REF3000-21108	Pstat Section
PSTATSERIALNO	LABEL	21108	Pstat Serial Number
CTRLMODE	IQUANT	1	Control Mode
ELECTROMETER	IQUANT	0	RE=0 or CS=1
IESTAB	IQUANT	2	I/E Stability
CASPEED	IQUANT	4	Control Amp Speed
CONVENTION	IQUANT	1	Current Convention
ICHRANGE	IQUANT	2	Ich Range
ICHRANGEMODE	TOGGLE	F	Ich Auto Range
ICHOFFSETENABLE	TOGGLE	F	Ich Offset Enable
ICHOFFSET	QUANT	0	Ich Offset (V)
ICHFILTER	IQUANT	2	Ich Filter
VCHRANGE	IQUANT	2	Vch Range
VCHRANGEMODE	TOGGLE	F	Vch Auto Range
VCHOFFSETENABLE	TOGGLE	F	Vch Offset Enable
VCHOFFSET	QUANT	0	Vch Offset (V)
VCHFILTER	IQUANT	2	Vch Filter
ACHRANGE	IQUANT	2	Ach Range
ACHOFFSETENABLE	TOGGLE	F	Ach Offset Enable
ACHOFFSET	QUANT	0	Ach Offset (V)
ACHFILTER	IQUANT	0	Ach Filter
IERANGELOWERLIMIT	IQUANT	2	I/E Range Lower Limit
IERANGEMODE	TOGGLE	F	I/E AutoRange
IERANGE	IQUANT	10	I/E Range
POSFEEDENABLE	TOGGLE	F	Positive Feedback IR Comp
POSFEEDRESISTANCE	QUANT	0	Positive Feedback Resistance (ohm)
ACHSELECT	IQUANT	0	Ach Select
SENSECABLEID	IQUANT	14	Sense Cable ID
PWRCABLEID	IQUANT	7	Power Cable ID
DCCALDATE	LABEL	11/9/2022	DC Calibration Date
ACCALDATE	LABEL	11/9/2022	AC Calibration Date
THERMOSELECT	IQUANT	1	Thermo Select
FRAMEWORKVERSION	LABEL	7.8.2	Framework Version
INSTRUMENTVERSION	LABEL	4.40	Instrument Version
COMPLIANCEVOLTAGE	IQUANT	0	Compliance Voltage
CURVE1	TABLE
	Pt	T	Vf	Im	Vu	Sig	Ach	IERange	Over	Temp
	#	s	V vs. Ref.	A	V	V	V	#	bits	deg C
	0	0.005	4.98828E-001	7.11216E-005	0.00000E+000	5.00000E-001	-7.02605E-004	10	..........a	-327.74
	31	0.16	4.67778E-001	3.01657E-005	0.00000E+000	4.69000E-001	-7.29272E-004	10	..........a	-327.74
	62	0.315	4.36776E-001	2.16102E-005	0.00000E+000	4.38000E-001	-7.82606E-004	10	..........a	-327.74
	93	0.47	4.05921E-001	1.69816E-005	0.00000E+000	4.07000E-001	-7.72606E-004	10	..........a	-327.74
	124	0.625	3.74874E-001	1.48260E-005	0.00000E+000	3.76000E-001	-7.45939E-004	10	..........a	-327.74
	155	0.78	3.43864E-001	1.28375E-005	0.00000E+000	3.45000E-001	-7.99272E-004	10	..........a	-327.74
	186	0.935	3.12904E-001	1.12000E-005	0.00000E+000	3.14000E-001	-7.52606E-004	10	..........a	-327.74
	217	1.09	2.81906E-001	9.91329E-006	0.00000E+000	2.83000E-001	-7.65939E-004	10	..........a	-327.74
	248	1.245	2.50909E-001	8.69347E-006	0.00000E+000	2.52000E-001	-7.35939E-004	10	..........a	-327.74
	279	1.4	2.20003E-001	7.42351E-006	0.00000E+000	2.21000E-001	-7.22606E-004	10	..........a	-327.74
	310	1.555	1.88921E-001	6.18698E-006	0.00000E+000	1.90000E-001	-7.72606E-004	10	..........a	-327.74
	341	1.71	1.57964E-001	4.59954E-006	0.00000E+000	1.59000E-001	-7.39272E-004	10	..........a	-327.74
	372	1.865	1.26991E-001	2.67790E-006	0.00000E+000	1.28000E-001	-7.79272E-004	10	..........a	-327.74
	403	2.02	9.60494E-002	1.90925E-006	0.00000E+000	9.70000E-002	-7.89272E-004	10	..........a	-327.74
	434	2.175	6.51127E-002	1.32440E-006	0.00000E+000	6.60000E-002	-7.59272E-004	10	..........a	-327.74
	465	2.33	3.40177E-002	5.89166E-007	0.00000E+000	3.50000E-002	-7.65939E-004	10	..........a	-327.74
	496	2.485	3.02773E-003	4.05357E-007	0.00000E+000	4.00001E-003	-7.79272E-004	10	..........a	-327.74
	527	2.64	-2.78989E-002	1.54709E-007	0.00000E+000	-2.70000E-002	-7.95939E-004	10	..........a	-327.74
	558	2.795	-5.89723E-002	2.04838E-007	0.00000E+000	-5.80000E-002	-7.62605E-004	10	..........a	-327.74
	589	2.95	-8.99506E-002	-1.29360E-007	0.00000E+000	-8.90000E-002	-7.49272E-004	10	..........a	-327.74
	620	3.105	-1.20952E-001	5.44490E-008	0.00000E+000	-1.20000E-001	-7.75939E-004	10	..........a	-327.74
	651	3.26	-1.51936E-001	-2.79749E-007	0.00000E+000	-1.51000E-001	-7.92605E-004	10	..........a	-327.74
	682	3.415	-1.82899E-001	-5.47107E-007	0.00000E+000	-1.82000E-001	-7.82606E-004	10	..........a	-327.74
	713	3.57	-2.13907E-001	-8.98015E-007	0.00000E+000	-2.13000E-001	-7.52606E-004	10	..........a	-327.74
	744	3.725	-2.44832E-001	-1.59983E-006	0.00000E+000	-2.44000E-001	-7.09272E-004	10	..........a	-327.74
	775	3.88	-2.75829E-001	-2.48546E-006	0.00000E+000	-2.75000E-001	-7.15939E-004	10	..........a	-327.74
	806	4.035	-3.06847E-001	-3.43792E-006	0.00000E+000	-3.06000E-001	-7.22606E-004	10	..........a	-327.74
	837	4.19	-3.37872E-001	-4.77471E-006	0.00000E+000	-3.37000E-001	-7.59272E-004	10	..........a	-327.74
	868	4.345	-3.68754E-001	-8.11669E-006	0.00000E+000	-3.68000E-001	-7.39272E-004	10	..........a	-327.74
	899	4.5	-3.99859E-001	-1.57698E-005	0.00000E+000	-3.99000E-001	-7.29272E-004	10	..........a	-327.74
	930	4.655	-4.30827E-001	-3.31481E-005	0.00000E+000	-4.30000E-001	-7.55939E-004	10	..........a	-327.74
	961	4.81	-4.61794E-001	-5.61577E-005	0.00000E+000	-4.61000E-001	-7.35939E-004	10	..........a	-327.74
	992	4.965	-4.92797E-001	-8.30940E-005	0.00000E+000	-4.92000E-001	-7.19272E-004	10	..........a	-327.74
	1023	5.12	-5.23734E-001	-1.27459E-004	0.00000E+000	-5.23000E-001	-7.45939E-004	10	..........a	-327.74
	1054	5.275	-5.54774E-001	-1.89536E-004	0.00000E+000	-5.54000E-001	-7.35939E-004	10	..........a	-327.74
	1085	5.43	-5.85844E-001	-2.20667E-004	0.00000E+000	-5.85000E-001	-7.89272E-004	10	..........a	-327.74
	1116	5.585	-6.16686E-001	-2.05912E-004	0.00000E+000	-6.16000E-001	-7.75939E-004	10	..........a	-327.74
	1147	5.74	-6.47771E-001	-1.78875E-004	0.00000E+000	-6.47000E-001	-7.12606E-004	10	..........a	-327.74
	1178	5.895	-6.78724E-001	-1.58623E-004	0.00000E+000	-6.78000E-001	-7.49272E-004	10	..........a	-327.74
	1209	6.05	-7.09681E-001	-1.43066E-004	0.00000E+000	-7.09000E-001	-7.42605E-004	10	..........a	-327.74
	1240	6.205	-7.40737E-001	-1.32355E-004	0.00000E+000	-7.40000E-001	-7.42605E-004	10	..........a	-327.74
	1271	6.36	-7.71709E-001	-1.23131E-004	0.00000E+000	-7.71000E-001	-7.25939E-004	10	..........a	-327.74
	1302	6.515	-8.02731E-001	-1.15762E-004	0.00000E+000	-8.02000E-001	-7.02605E-004	10	..........a	-327.74
	1333	6.67	-8.33592E-001	-1.10047E-004	0.00000E+000	-8.33000E-001	-7.45939E-004	10	..........a	-327.74
	1364	6.825	-8.64624E-001	-1.05168E-004	0.00000E+000	-8.64000E-001	-7.65939E-004	10	..........a	-327.74
	1395	6.98	-8.95589E-001	-1.00990E-004	0.00000E+000	-8.95000E-001	-7.32606E-004	10	..........a	-327.74
	1426	7.135	-9.26612E-001	-9.71136E-005	0.00000E+000	-9.26000E-001	-7.25939E-004	10	..........a	-327.74
[...]
	2015	10.08	-4.85879E-001	1.01467E-004	0.00000E+000	-4.85000E-001	-7.69272E-004	10	..........a	-327.74
	2046	10.235	-4.54821E-001	1.17876E-004	0.00000E+000	-4.54000E-001	-7.45939E-004	10	..........a	-327.74
	2077	10.39	-4.23852E-001	1.13498E-004	0.00000E+000	-4.23000E-001	-7.42605E-004	10	..........a	-327.74
	2108	10.545	-3.92844E-001	1.01567E-004	0.00000E+000	-3.92000E-001	-7.69272E-004	10	..........a	-327.74
	2139	10.7	-3.61834E-001	8.99704E-005	0.00000E+000	-3.61000E-001	-7.49272E-004	10	..........a	-327.74
	2170	10.855	-3.30934E-001	8.14484E-005	0.00000E+000	-3.30000E-001	-7.92605E-004	10	..........a	-327.74
	2201	11.01	-2.99857E-001	7.48145E-005	0.00000E+000	-2.99000E-001	-7.15939E-004	10	..........a	-327.74
	2232	11.165	-2.68892E-001	6.98851E-005	0.00000E+000	-2.68000E-001	-7.52606E-004	10	..........a	-327.74
	2263	11.32	-2.37869E-001	6.49056E-005	0.00000E+000	-2.37000E-001	-7.55939E-004	10	..........a	-327.74
	2294	11.475	-2.06896E-001	6.00263E-005	0.00000E+000	-2.06000E-001	-7.99272E-004	10	..........a	-327.74
	2325	11.63	-1.75969E-001	5.55313E-005	0.00000E+000	-1.75000E-001	-7.25939E-004	10	..........a	-327.74
	2356	11.785	-1.44939E-001	5.17382E-005	0.00000E+000	-1.44000E-001	-7.69272E-004	10	..........a	-327.74
	2387	11.94	-1.13952E-001	4.82458E-005	0.00000E+000	-1.13000E-001	-7.62605E-004	10	..........a	-327.74
	2418	12.095	-8.29756E-002	4.52213E-005	0.00000E+000	-8.20000E-002	-7.49272E-004	10	..........a	-327.74
	2449	12.25	-5.19089E-002	4.23973E-005	0.00000E+000	-5.10000E-002	-7.72606E-004	10	..........a	-327.74
	2480	12.405	-2.09973E-002	4.08266E-005	0.00000E+000	-2.00000E-002	-7.49272E-004	10	..........a	-327.74
	2511	12.56	1.00277E-002	3.89551E-005	0.00000E+000	1.10000E-002	-7.59272E-004	10	..........a	-327.74
	2542	12.715	4.09861E-002	3.80528E-005	0.00000E+000	4.20000E-002	-7.95939E-004	10	..........a	-327.74
	2573	12.87	7.19744E-002	3.69666E-005	0.00000E+000	7.30000E-002	-7.95939E-004	10	..........a	-327.74
	2604	13.025	1.02889E-001	3.67494E-005	0.00000E+000	1.04000E-001	-7.35939E-004	10	..........a	-327.74
	2635	13.18	1.33991E-001	3.84538E-005	0.00000E+000	1.35000E-001	-7.45939E-004	10	..........a	-327.74
	2666	13.335	1.64948E-001	4.04423E-005	0.00000E+000	1.66000E-001	-7.29272E-004	10	..........a	-327.74
	2697	13.49	1.96031E-001	4.09603E-005	0.00000E+000	1.97000E-001	-7.12606E-004	10	..........a	-327.74
	2728	13.645	2.26953E-001	4.02250E-005	0.00000E+000	2.28000E-001	-7.55939E-004	10	..........a	-327.74
	2759	13.8	2.57884E-001	3.82867E-005	0.00000E+000	2.59000E-001	-7.62605E-004	10	..........a	-327.74
	2790	13.955	2.88918E-001	3.66491E-005	0.00000E+000	2.90000E-001	-7.62605E-004	10	..........a	-327.74
	2821	14.11	3.19906E-001	3.44267E-005	0.00000E+000	3.21000E-001	-7.79272E-004	10	..........a	-327.74
	2852	14.265	3.50934E-001	3.28560E-005	0.00000E+000	3.52000E-001	-7.72606E-004	10	..........a	-327.74
	2883	14.42	3.81906E-001	3.21040E-005	0.00000E+000	3.83000E-001	-7.39272E-004	10	..........a	-327.74
	2914	14.575	4.12826E-001	3.04498E-005	0.00000E+000	4.14000E-001	-7.75939E-004	10	..........a	-327.74
	2945	14.73	4.43779E-001	2.93970E-005	0.00000E+000	4.45000E-001	-7.39272E-004	10	..........a	-327.74
	2976	14.885	4.74833E-001	2.82775E-005	0.00000E+000	4.76000E-001	-7.55939E-004	10	..........a	-327.74
	3000	15.005	4.98829E-001	2.73918E-005	0.00000E+000	5.00000E-001	-7.59272E-004	10	..........a	-327.74
CURVE2	TABLE
	Pt	T	Vf	Im	Vu	Sig	Ach	IERange	Over	Temp
	#	s	V vs. Ref.	A	V	V	V	#	bits	deg C
	3001	15.01	4.98799E-001	2.69073E-005	0.00000E+000	5.00000E-001	-7.45939E-004	10	..........a	-327.74

File: 1mkcl-15btmapaq-nitrogen-300mvpers.DTA
EXPLAIN
TAG	CV
TITLE	LABEL	Cyclic Voltammetry	Test &Identifier
DATE	LABEL	1/31/2023	Date
TIME	LABEL	18:18:14	Time
NOTES	NOTES	1	&Notes...

PSTAT	PSTAT	REF3000-21108	Potentiostat
VINIT	POTEN	5.00000E-001	F	Initial &E (V)
VLIMIT1	POTEN	-1.00000E+000	F	Scan Limit &1 (V)
VLIMIT2	POTEN	5.00000E-001	F	Scan Limit &2 (V)
VFINAL	POTEN	5.00000E-001	F	Final &E (V)
SCANRATE	QUANT	2.99999E+002	&Scan Rate (mV/s)
STEPSIZE	QUANT	1.00000E+000	St&ep Size (mV)
CYCLES	IQUANT	1	C&ycles (#)
IMODE	SELECTOR	1	I/E Range &Mode
IRANGE	QUANT	1.00000E+001	&Max Current (mA)
AREA	QUANT	1.00000E+000	Electrode &Area (cm^2)
ELECTRODETYPE	SELECTOR	0	Electrode Type
STRIPPING	TOGGLE	F	Used for Stripping
POLARITY	TOGGLE	F	Signal Polarity
CONDIT	TWOPARAM	F	1.50000E+001	0.00000E+000	Conditionin&g	Time(s)	E(V)
DELAY	TWOPARAM	F	5.00000E+000	0.00000E+000	Init. De&lay	Time(s)	Stab.(mV/s)
EQDELAY	QUANT	0.00000E+000	Equil. &Time (s)
IRCOMP	SELECTOR	0	IRCom&p
PFCOR	QUANT	5.00000E+001	PF Corr. (ohm)
SAMPLINGMODE	SELECTOR	1	Sampling &Mode
EOC	QUANT	0	Open Circuit (V)
PSTATMODEL	IQUANT	5	Pstat Model
PSTATSECTION	LABEL	REF3000-21108	Pstat Section
PSTATSERIALNO	LABEL	21108	Pstat Serial Number
CTRLMODE	IQUANT	1	Control Mode
ELECTROMETER	IQUANT	0	RE=0 or CS=1
IESTAB	IQUANT	2	I/E Stability
CASPEED	IQUANT	4	Control Amp Speed
CONVENTION	IQUANT	1	Current Convention
ICHRANGE	IQUANT	2	Ich Range
ICHRANGEMODE	TOGGLE	F	Ich Auto Range
ICHOFFSETENABLE	TOGGLE	F	Ich Offset Enable
ICHOFFSET	QUANT	0	Ich Offset (V)
ICHFILTER	IQUANT	2	Ich Filter
VCHRANGE	IQUANT	2	Vch Range
VCHRANGEMODE	TOGGLE	F	Vch Auto Range
VCHOFFSETENABLE	TOGGLE	F	Vch Offset Enable
VCHOFFSET	QUANT	0	Vch Offset (V)
VCHFILTER	IQUANT	2	Vch Filter
ACHRANGE	IQUANT	2	Ach Range
ACHOFFSETENABLE	TOGGLE	F	Ach Offset Enable
ACHOFFSET	QUANT	0	Ach Offset (V)
ACHFILTER	IQUANT	0	Ach Filter
IERANGELOWERLIMIT	IQUANT	2	I/E Range Lower Limit
IERANGEMODE	TOGGLE	F	I/E AutoRange
IERANGE	IQUANT	10	I/E Range
POSFEEDENABLE	TOGGLE	F	Positive Feedback IR Comp
POSFEEDRESISTANCE	QUANT	0	Positive Feedback Resistance (ohm)
ACHSELECT	IQUANT	0	Ach Select
SENSECABLEID	IQUANT	14	Sense Cable ID
PWRCABLEID	IQUANT	7	Power Cable ID
DCCALDATE	LABEL	11/9/2022	DC Calibration Date
ACCALDATE	LABEL	11/9/2022	AC Calibration Date
THERMOSELECT	IQUANT	1	Thermo Select
FRAMEWORKVERSION	LABEL	7.8.2	Framework Version
INSTRUMENTVERSION	LABEL	4.40	Instrument Version
COMPLIANCEVOLTAGE	IQUANT	0	Compliance Voltage
CURVE1	TABLE
	Pt	T	Vf	Im	Vu	Sig	Ach	IERange	Over	Temp
	#	s	V vs. Ref.	A	V	V	V	#	bits	deg C
	0	0.003333	4.98776E-001	8.76895E-005	0.00000E+000	5.00000E-001	-7.84272E-004	10	..........a	-327.74
	32	0.11	4.66731E-001	4.32245E-005	0.00000E+000	4.68000E-001	-9.74272E-004	10	..........a	-327.74
	64	0.216667	4.34794E-001	3.17949E-005	0.00000E+000	4.36000E-001	-9.34272E-004	10	..........a	-327.74
	96	0.323333	4.02821E-001	2.55788E-005	0.00000E+000	4.04000E-001	-8.39272E-004	10	..........a	-327.74
	128	0.43	3.70791E-001	2.18943E-005	0.00000E+000	3.72000E-001	-9.34272E-004	10	..........a	-327.74
	160	0.536667	3.38806E-001	1.88364E-005	0.00000E+000	3.40000E-001	-9.19272E-004	10	..........a	-327.74
	192	0.643333	3.06841E-001	1.68312E-005	0.00000E+000	3.08000E-001	-9.69272E-004	10	..........a	-327.74
	224	0.75	2.74851E-001	1.50516E-005	0.00000E+000	2.76000E-001	-1.02427E-003	10	..........a	-327.74
	256	0.856667	2.42829E-001	1.29211E-005	0.00000E+000	2.44000E-001	-1.01427E-003	10	..........a	-327.74
	288	0.96333	2.10859E-001	1.05148E-005	0.00000E+000	2.12000E-001	-9.39272E-004	10	..........a	-327.74
	320	1.07	1.78899E-001	8.88563E-006	0.00000E+000	1.80000E-001	-9.49272E-004	10	..........a	-327.74
	352	1.17667	1.46846E-001	7.20629E-006	0.00000E+000	1.48000E-001	-1.00927E-003	10	..........a	-327.74
	384	1.28333	1.14821E-001	5.60214E-006	0.00000E+000	1.16000E-001	-9.69272E-004	10	..........a	-327.74
	416	1.39	8.28561E-002	4.49928E-006	0.00000E+000	8.40000E-002	-1.02927E-003	10	..........a	-327.74
	448	1.49667	5.09111E-002	2.89513E-006	0.00000E+000	5.20000E-002	-9.89272E-004	10	..........a	-327.74
	480	1.60333	1.89461E-002	2.51916E-006	0.00000E+000	2.00000E-002	-9.19272E-004	10	..........a	-327.74
	512	1.71	-1.30564E-002	1.76721E-006	0.00000E+000	-1.20000E-002	-9.34272E-004	10	..........a	-327.74
	544	1.81667	-4.50464E-002	1.94267E-006	0.00000E+000	-4.40000E-002	-9.04272E-004	10	..........a	-327.74
	576	1.92333	-7.70489E-002	1.86747E-006	0.00000E+000	-7.60000E-002	-9.79272E-004	10	..........a	-327.74
	608	2.03	-1.08934E-001	1.31605E-006	0.00000E+000	-1.08000E-001	-8.49272E-004	10	..........a	-327.74
	640	2.13667	-1.40956E-001	1.06540E-006	0.00000E+000	-1.40000E-001	-7.89272E-004	10	..........a	-327.74
	672	2.24333	-1.73046E-001	8.14750E-007	0.00000E+000	-1.72000E-001	-9.09272E-004	10	..........a	-327.74
	704	2.35	-2.04959E-001	4.38777E-007	0.00000E+000	-2.04000E-001	-8.89272E-004	10	..........a	-327.74
	736	2.45667	-2.36944E-001	-6.39012E-007	0.00000E+000	-2.36000E-001	-8.84272E-004	10	..........a	-327.74
	768	2.56333	-2.69011E-001	-1.54135E-006	0.00000E+000	-2.68000E-001	-1.00927E-003	10	..........a	-327.74
	800	2.67	-3.00994E-001	-2.64420E-006	0.00000E+000	-3.00000E-001	-9.69272E-004	10	..........a	-327.74
	832	2.77667	-3.32954E-001	-4.77471E-006	0.00000E+000	-3.32000E-001	-9.24272E-004	10	..........a	-327.74
	864	2.88333	-3.64936E-001	-7.28120E-006	0.00000E+000	-3.64000E-001	-9.29272E-004	10	..........a	-327.74
	896	2.99	-3.96951E-001	-1.62544E-005	0.00000E+000	-3.96000E-001	-9.04272E-004	10	..........a	-327.74
	928	3.09667	-4.28931E-001	-3.67073E-005	0.00000E+000	-4.28000E-001	-7.89272E-004	10	..........a	-327.74
	960	3.20333	-4.60871E-001	-6.44291E-005	0.00000E+000	-4.60000E-001	-9.34272E-004	10	..........a	-327.74
	992	3.31	-4.92791E-001	-9.53089E-005	0.00000E+000	-4.92000E-001	-9.29272E-004	10	..........a	-327.74
	1024	3.41667	-5.24909E-001	-1.48246E-004	0.00000E+000	-5.24000E-001	-9.54272E-004	10	..........a	-327.74
	1056	3.52333	-5.56844E-001	-2.25270E-004	0.00000E+000	-5.56000E-001	-8.69272E-004	10	..........a	-327.74
	1088	3.63	-5.88864E-001	-2.64396E-004	0.00000E+000	-5.88000E-001	-1.03427E-003	10	..........a	-327.74
	1120	3.73667	-6.20849E-001	-2.47252E-004	0.00000E+000	-6.20000E-001	-1.02927E-003	10	..........a	-327.74
	1152	3.84333	-6.52789E-001	-2.15445E-004	0.00000E+000	-6.52000E-001	-9.19272E-004	10	..........a	-327.74
	1184	3.95	-6.84864E-001	-1.90129E-004	0.00000E+000	-6.84000E-001	-9.14272E-004	10	..........a	-327.74
	1216	4.05667	-7.16831E-001	-1.71656E-004	0.00000E+000	-7.16000E-001	-9.14272E-004	10	..........a	-327.74
	1248	4.16333	-7.48754E-001	-1.58147E-004	0.00000E+000	-7.48000E-001	-9.04272E-004	10	..........a	-327.74
	1280	4.27	-7.80786E-001	-1.47143E-004	0.00000E+000	-7.80000E-001	-9.74272E-004	10	..........a	-327.74
	1312	4.37667	-8.12801E-001	-1.37669E-004	0.00000E+000	-8.12000E-001	-9.84272E-004	10	..........a	-327.74
	1344	4.48333	-8.44701E-001	-1.31252E-004	0.00000E+000	-8.44000E-001	-8.94272E-004	10	..........a	-327.74
	1376	4.59	-8.76759E-001	-1.25111E-004	0.00000E+000	-8.76000E-001	-9.39272E-004	10	..........a	-327.74
	1408	4.69667	-9.08734E-001	-1.19547E-004	0.00000E+000	-9.08000E-001	-9.99272E-004	10	..........a	-327.74
	1440	4.80333	-9.40734E-001	-1.15010E-004	0.00000E+000	-9.40000E-001	-1.09927E-003	10	..........a	-327.74
[...]
	1984	6.61667	-5.16946E-001	7.72375E-005	0.00000E+000	-5.16000E-001	-9.94272E-004	10	..........a	-327.74
	2016	6.72333	-4.84974E-001	1.19647E-004	0.00000E+000	-4.84000E-001	-1.01427E-003	10	..........a	-327.74
	2048	6.83	-4.53024E-001	1.40827E-004	0.00000E+000	-4.52000E-001	-1.09427E-003	10	..........a	-327.74
	2080	6.93667	-4.20896E-001	1.36792E-004	0.00000E+000	-4.20000E-001	-8.89272E-004	10	..........a	-327.74
	2112	7.04333	-3.88891E-001	1.22555E-004	0.00000E+000	-3.88000E-001	-8.94272E-004	10	..........a	-327.74
	2144	7.15	-3.57036E-001	1.10022E-004	0.00000E+000	-3.56000E-001	-1.01927E-003	10	..........a	-327.74
	2176	7.25667	-3.24991E-001	1.00623E-004	0.00000E+000	-3.24000E-001	-8.69272E-004	10	..........a	-327.74
	2208	7.36333	-2.93026E-001	9.37803E-005	0.00000E+000	-2.92000E-001	-9.39272E-004	10	..........a	-327.74
	2240	7.47	-2.60964E-001	8.77647E-005	0.00000E+000	-2.60000E-001	-8.34272E-004	10	..........a	-327.74
	2272	7.57667	-2.28996E-001	8.17241E-005	0.00000E+000	-2.28000E-001	-9.39272E-004	10	..........a	-327.74
	2304	7.68333	-1.97076E-001	7.56333E-005	0.00000E+000	-1.96000E-001	-8.64272E-004	10	..........a	-327.74
	2336	7.79	-1.65019E-001	7.09963E-005	0.00000E+000	-1.64000E-001	-9.09272E-004	10	..........a	-327.74
	2368	7.89667	-1.32996E-001	6.59332E-005	0.00000E+000	-1.32000E-001	-9.69272E-004	10	..........a	-327.74
	2400	8.00333	-1.01076E-001	6.14717E-005	0.00000E+000	-1.00000E-001	-8.94272E-004	10	..........a	-327.74
	2432	8.11	-6.90739E-002	5.80378E-005	0.00000E+000	-6.80000E-002	-9.14272E-004	10	..........a	-327.74
	2464	8.21667	-3.71089E-002	5.55564E-005	0.00000E+000	-3.60000E-002	-9.99272E-004	10	..........a	-327.74
	2496	8.32333	-5.11394E-003	5.30750E-005	0.00000E+000	-4.00001E-003	-9.14272E-004	10	..........a	-327.74
	2528	8.43	2.69261E-002	5.10447E-005	0.00000E+000	2.80000E-002	-8.49272E-004	10	..........a	-327.74
	2560	8.53667	5.88836E-002	4.99669E-005	0.00000E+000	6.00000E-002	-9.14272E-004	10	..........a	-327.74
	2592	8.64333	9.09311E-002	4.91899E-005	0.00000E+000	9.20000E-002	-8.94272E-004	10	..........a	-327.74
	2624	8.75	1.22949E-001	4.97163E-005	0.00000E+000	1.24000E-001	-9.39272E-004	10	..........a	-327.74
	2656	8.85667	1.54824E-001	5.20974E-005	0.00000E+000	1.56000E-001	-9.59272E-004	10	..........a	-327.74
	2688	8.96333	1.86874E-001	5.39522E-005	0.00000E+000	1.88000E-001	-8.69272E-004	10	..........a	-327.74
	2720	9.07	2.18776E-001	5.36765E-005	0.00000E+000	2.20000E-001	-8.44272E-004	10	..........a	-327.74
	2752	9.17667	2.50854E-001	5.15711E-005	0.00000E+000	2.52000E-001	-9.64272E-004	10	..........a	-327.74
	2784	9.28333	2.82831E-001	4.90896E-005	0.00000E+000	2.84000E-001	-9.34272E-004	10	..........a	-327.74
	2816	9.39	3.14836E-001	4.65832E-005	0.00000E+000	3.16000E-001	-9.04272E-004	10	..........a	-327.74
	2848	9.49667	3.46846E-001	4.45028E-005	0.00000E+000	3.48000E-001	-9.14272E-004	10	..........a	-327.74
	2880	9.6033	3.78804E-001	4.21968E-005	0.00000E+000	3.80000E-001	-9.34272E-004	10	..........a	-327.74
	2912	9.71	4.10806E-001	4.10689E-005	0.00000E+000	4.12000E-001	-9.19272E-004	10	..........a	-327.74
	2944	9.8167	4.42754E-001	3.95650E-005	0.00000E+000	4.44000E-001	-9.09272E-004	10	..........a	-327.74
	2976	9.9233	4.74754E-001	3.77854E-005	0.00000E+000	4.76000E-001	-9.29272E-004	10	..........a	-327.74
	3000	10.0033	4.98746E-001	3.69081E-005	0.00000E+000	5.00000E-001	-8.99272E-004	10	..........a	-327.74
CURVE2	TABLE
	Pt	T	Vf	Im	Vu	Sig	Ach	IERange	Over	Temp
	#	s	V vs. Ref.	A	V	V	V	#	bits	deg C
	3001	10.0067	4.98756E-001	3.58554E-005	0.00000E+000	5.00000E-001	-9.14272E-004	10	..........a	-327.74