Folder: 2024-09-QuCO2-NCE/data/02-SI/Figures_S9_S11_RDE/15btmapaq-rde (part 9)

File: 1mkcl-15btmapaq-nitrogen-2000mvpers.DTA
EXPLAIN
TAG	CV
TITLE	LABEL	Cyclic Voltammetry	Test &Identifier
DATE	LABEL	1/31/2023	Date
TIME	LABEL	18:20:57	Time
NOTES	NOTES	1	&Notes...

PSTAT	PSTAT	REF3000-21108	Potentiostat
VINIT	POTEN	5.00000E-001	F	Initial &E (V)
VLIMIT1	POTEN	-1.00000E+000	F	Scan Limit &1 (V)
VLIMIT2	POTEN	5.00000E-001	F	Scan Limit &2 (V)
VFINAL	POTEN	5.00000E-001	F	Final &E (V)
SCANRATE	QUANT	2.00000E+003	&Scan Rate (mV/s)
STEPSIZE	QUANT	1.00000E+000	St&ep Size (mV)
CYCLES	IQUANT	1	C&ycles (#)
IMODE	SELECTOR	1	I/E Range &Mode
IRANGE	QUANT	1.00000E+001	&Max Current (mA)
AREA	QUANT	1.00000E+000	Electrode &Area (cm^2)
ELECTRODETYPE	SELECTOR	0	Electrode Type
STRIPPING	TOGGLE	F	Used for Stripping
POLARITY	TOGGLE	F	Signal Polarity
CONDIT	TWOPARAM	F	1.50000E+001	0.00000E+000	Conditionin&g	Time(s)	E(V)
DELAY	TWOPARAM	F	5.00000E+000	0.00000E+000	Init. De&lay	Time(s)	Stab.(mV/s)
EQDELAY	QUANT	0.00000E+000	Equil. &Time (s)
IRCOMP	SELECTOR	0	IRCom&p
PFCOR	QUANT	5.00000E+001	PF Corr. (ohm)
SAMPLINGMODE	SELECTOR	1	Sampling &Mode
EOC	QUANT	0	Open Circuit (V)
PSTATMODEL	IQUANT	5	Pstat Model
PSTATSECTION	LABEL	REF3000-21108	Pstat Section
PSTATSERIALNO	LABEL	21108	Pstat Serial Number
CTRLMODE	IQUANT	1	Control Mode
ELECTROMETER	IQUANT	0	RE=0 or CS=1
IESTAB	IQUANT	2	I/E Stability
CASPEED	IQUANT	4	Control Amp Speed
CONVENTION	IQUANT	1	Current Convention
ICHRANGE	IQUANT	2	Ich Range
ICHRANGEMODE	TOGGLE	F	Ich Auto Range
ICHOFFSETENABLE	TOGGLE	F	Ich Offset Enable
ICHOFFSET	QUANT	0	Ich Offset (V)
ICHFILTER	IQUANT	1	Ich Filter
VCHRANGE	IQUANT	2	Vch Range
VCHRANGEMODE	TOGGLE	F	Vch Auto Range
VCHOFFSETENABLE	TOGGLE	F	Vch Offset Enable
VCHOFFSET	QUANT	0	Vch Offset (V)
VCHFILTER	IQUANT	1	Vch Filter
ACHRANGE	IQUANT	2	Ach Range
ACHOFFSETENABLE	TOGGLE	F	Ach Offset Enable
ACHOFFSET	QUANT	0	Ach Offset (V)
ACHFILTER	IQUANT	0	Ach Filter
IERANGELOWERLIMIT	IQUANT	2	I/E Range Lower Limit
IERANGEMODE	TOGGLE	F	I/E AutoRange
IERANGE	IQUANT	10	I/E Range
POSFEEDENABLE	TOGGLE	F	Positive Feedback IR Comp
POSFEEDRESISTANCE	QUANT	0	Positive Feedback Resistance (ohm)
ACHSELECT	IQUANT	0	Ach Select
SENSECABLEID	IQUANT	14	Sense Cable ID
PWRCABLEID	IQUANT	7	Power Cable ID
DCCALDATE	LABEL	11/9/2022	DC Calibration Date
ACCALDATE	LABEL	11/9/2022	AC Calibration Date
THERMOSELECT	IQUANT	1	Thermo Select
FRAMEWORKVERSION	LABEL	7.8.2	Framework Version
INSTRUMENTVERSION	LABEL	4.40	Instrument Version
COMPLIANCEVOLTAGE	IQUANT	0	Compliance Voltage
CURVE1	TABLE
	Pt	T	Vf	Im	Vu	Sig	Ach	IERange	Over	Temp
	#	s	V vs. Ref.	A	V	V	V	#	bits	deg C
	0	0.0005	4.98808E-001	6.37132E-005	0.00000E+000	5.00000E-001	-7.95939E-004	10	..........a	-327.74
	31	0.016	4.67791E-001	3.81471E-005	0.00000E+000	4.69000E-001	-9.29272E-004	10	..........a	-327.74
	62	0.0315	4.36791E-001	2.67843E-005	0.00000E+000	4.38000E-001	-8.95939E-004	10	..........a	-327.74
	93	0.047	4.05841E-001	1.99333E-005	0.00000E+000	4.07000E-001	-9.62605E-004	10	..........a	-327.74
	124	0.0625	3.74808E-001	1.45861E-005	0.00000E+000	3.76000E-001	-8.95939E-004	10	..........a	-327.74
	155	0.078	3.43791E-001	1.00744E-005	0.00000E+000	3.45000E-001	-9.62605E-004	10	..........a	-327.74
	186	0.0935	3.12741E-001	8.40344E-006	0.00000E+000	3.14000E-001	-9.29272E-004	10	..........a	-327.74
	217	0.109	2.81808E-001	4.89436E-006	0.00000E+000	2.83000E-001	-8.95939E-004	10	..........a	-327.74
	248	0.1245	2.50841E-001	3.39047E-006	0.00000E+000	2.52000E-001	-8.29272E-004	10	..........a	-327.74
	279	0.14	2.19791E-001	-4.63028E-006	0.00000E+000	2.21000E-001	-8.62605E-004	10	..........a	-327.74
	310	0.1555	1.88808E-001	-5.13158E-006	0.00000E+000	1.90000E-001	-7.95939E-004	10	..........a	-327.74
	341	0.171	1.57908E-001	-8.80775E-006	0.00000E+000	1.59000E-001	-7.95939E-004	10	..........a	-327.74
	372	0.1865	1.26891E-001	-9.81035E-006	0.00000E+000	1.28000E-001	-8.62605E-004	10	..........a	-327.74
	403	0.202	9.57743E-002	-1.23168E-005	0.00000E+000	9.70000E-002	-7.95939E-004	10	..........a	-327.74
	434	0.2175	6.49910E-002	-1.44891E-005	0.00000E+000	6.60000E-002	-8.95939E-004	10	..........a	-327.74
	465	0.233	3.39243E-002	-1.31523E-005	0.00000E+000	3.50000E-002	-8.62605E-004	10	..........a	-327.74
	496	0.2485	2.94100E-003	-1.46562E-005	0.00000E+000	4.00001E-003	-8.62605E-004	10	..........a	-327.74
	527	0.264	-2.80590E-002	-1.68285E-005	0.00000E+000	-2.70000E-002	-8.95939E-004	10	..........a	-327.74
	558	0.2795	-5.92257E-002	-1.69956E-005	0.00000E+000	-5.80000E-002	-9.29272E-004	10	..........a	-327.74
	589	0.295	-9.00757E-002	-1.74969E-005	0.00000E+000	-8.90000E-002	-9.29272E-004	10	..........a	-327.74
	620	0.3105	-1.21109E-001	-1.98363E-005	0.00000E+000	-1.20000E-001	-8.62605E-004	10	..........a	-327.74
	651	0.326	-1.52092E-001	-2.00034E-005	0.00000E+000	-1.51000E-001	-9.29272E-004	10	..........a	-327.74
	682	0.3415	-1.82959E-001	-2.31783E-005	0.00000E+000	-1.82000E-001	-8.62605E-004	10	..........a	-327.74
	713	0.357	-2.14026E-001	-2.45151E-005	0.00000E+000	-2.13000E-001	-8.29272E-004	10	..........a	-327.74
	744	0.3725	-2.44976E-001	-2.86925E-005	0.00000E+000	-2.44000E-001	-8.62605E-004	10	..........a	-327.74
	775	0.388	-2.76042E-001	-3.37055E-005	0.00000E+000	-2.75000E-001	-8.95939E-004	10	..........a	-327.74
	806	0.4035	-3.06959E-001	-3.73817E-005	0.00000E+000	-3.06000E-001	-8.29272E-004	10	..........a	-327.74
	837	0.419	-3.37892E-001	-4.03895E-005	0.00000E+000	-3.37000E-001	-8.29272E-004	10	..........a	-327.74
	868	0.4345	-3.68842E-001	-4.59037E-005	0.00000E+000	-3.68000E-001	-8.29272E-004	10	..........a	-327.74
	899	0.45	-3.99992E-001	-6.07755E-005	0.00000E+000	-3.99000E-001	-8.95939E-004	10	..........a	-327.74
	930	0.4655	-4.30909E-001	-9.65347E-005	0.00000E+000	-4.30000E-001	-8.95939E-004	10	..........a	-327.74
	961	0.481	-4.61976E-001	-1.65212E-004	0.00000E+000	-4.61000E-001	-8.62605E-004	10	..........a	-327.74
	992	0.4965	-4.92992E-001	-2.34224E-004	0.00000E+000	-4.92000E-001	-9.29272E-004	10	..........a	-327.74
	1023	0.512	-5.23859E-001	-3.32311E-004	0.00000E+000	-5.23000E-001	-7.62605E-004	10	..........a	-327.74
	1054	0.5275	-5.54826E-001	-5.12110E-004	0.00000E+000	-5.54000E-001	-8.62605E-004	10	..........a	-327.74
	1085	0.543	-5.85892E-001	-6.74029E-004	0.00000E+000	-5.85000E-001	-9.29272E-004	10	..........a	-327.74
	1116	0.5585	-6.16826E-001	-7.08451E-004	0.00000E+000	-6.16000E-001	-7.95939E-004	10	..........a	-327.74
	1147	0.574	-6.47842E-001	-6.50969E-004	0.00000E+000	-6.47000E-001	-8.95939E-004	10	..........a	-327.74
	1178	0.5895	-6.78826E-001	-5.84130E-004	0.00000E+000	-6.78000E-001	-8.29272E-004	10	..........a	-327.74
	1209	0.605	-7.09909E-001	-5.29655E-004	0.00000E+000	-7.09000E-001	-8.29272E-004	10	..........a	-327.74
	1240	0.6205	-7.40826E-001	-4.88716E-004	0.00000E+000	-7.40000E-001	-8.95939E-004	10	..........a	-327.74
	1271	0.636	-7.71726E-001	-4.55129E-004	0.00000E+000	-7.71000E-001	-9.62605E-004	10	..........a	-327.74
	1302	0.6515	-8.02826E-001	-4.27725E-004	0.00000E+000	-8.02000E-001	-7.95939E-004	10	..........a	-327.74
	1333	0.667	-8.33742E-001	-4.05501E-004	0.00000E+000	-8.33000E-001	-8.62605E-004	10	..........a	-327.74
	1364	0.6825	-8.64692E-001	-3.84112E-004	0.00000E+000	-8.64000E-001	-8.95939E-004	10	..........a	-327.74
	1395	0.698	-8.95642E-001	-3.68739E-004	0.00000E+000	-8.95000E-001	-8.29272E-004	10	..........a	-327.74
	1426	0.7135	-9.26642E-001	-3.55037E-004	0.00000E+000	-9.26000E-001	-7.62605E-004	10	..........a	-327.74
[...]
	2015	1.008	-4.85992E-001	2.29643E-004	0.00000E+000	-4.85000E-001	-8.95939E-004	10	..........a	-327.74
	2046	1.0235	-4.54892E-001	2.92305E-004	0.00000E+000	-4.54000E-001	-8.62605E-004	10	..........a	-327.74
	2077	1.039	-4.23959E-001	3.08346E-004	0.00000E+000	-4.23000E-001	-9.29272E-004	10	..........a	-327.74
	2108	1.0545	-3.92909E-001	2.96315E-004	0.00000E+000	-3.92000E-001	-8.62605E-004	10	..........a	-327.74
	2139	1.07	-3.61976E-001	2.76096E-004	0.00000E+000	-3.61000E-001	-8.62605E-004	10	..........a	-327.74
	2170	1.0855	-3.30909E-001	2.60556E-004	0.00000E+000	-3.30000E-001	-8.95939E-004	10	..........a	-327.74
	2201	1.101	-2.99959E-001	2.46854E-004	0.00000E+000	-2.99000E-001	-9.62605E-004	10	..........a	-327.74
	2232	1.1165	-2.68976E-001	2.39334E-004	0.00000E+000	-2.68000E-001	-8.29272E-004	10	..........a	-327.74
	2263	1.132	-2.37959E-001	2.28306E-004	0.00000E+000	-2.37000E-001	-9.62605E-004	10	..........a	-327.74
	2294	1.1475	-2.06992E-001	2.17778E-004	0.00000E+000	-2.06000E-001	-8.62605E-004	10	..........a	-327.74
	2325	1.163	-1.76076E-001	2.05747E-004	0.00000E+000	-1.75000E-001	-9.29272E-004	10	..........a	-327.74
	2356	1.1785	-1.45076E-001	1.91043E-004	0.00000E+000	-1.44000E-001	-8.95939E-004	10	..........a	-327.74
	2387	1.194	-1.14009E-001	1.81351E-004	0.00000E+000	-1.13000E-001	-8.29272E-004	10	..........a	-327.74
	2418	1.2095	-8.31590E-002	1.71492E-004	0.00000E+000	-8.20000E-002	-8.95939E-004	10	..........a	-327.74
	2449	1.225	-5.21590E-002	1.60965E-004	0.00000E+000	-5.10000E-002	-8.95939E-004	10	..........a	-327.74
	2480	1.2405	-2.11257E-002	1.53278E-004	0.00000E+000	-2.00000E-002	-7.29272E-004	10	..........a	-327.74
	2511	1.256	9.90767E-003	1.50605E-004	0.00000E+000	1.10000E-002	-8.95939E-004	10	..........a	-327.74
	2542	1.2715	4.09743E-002	1.46929E-004	0.00000E+000	4.20000E-002	-9.29272E-004	10	..........a	-327.74
	2573	1.287	7.19077E-002	1.45759E-004	0.00000E+000	7.30000E-002	-8.29272E-004	10	..........a	-327.74
	2604	1.3025	1.02858E-001	1.44756E-004	0.00000E+000	1.04000E-001	-8.62605E-004	10	..........a	-327.74
	2635	1.318	1.33891E-001	1.42584E-004	0.00000E+000	1.35000E-001	-8.95939E-004	10	..........a	-327.74
	2666	1.3335	1.64841E-001	1.46594E-004	0.00000E+000	1.66000E-001	-8.29272E-004	10	..........a	-327.74
	2697	1.349	1.95841E-001	1.41916E-004	0.00000E+000	1.97000E-001	-8.62605E-004	10	..........a	-327.74
	2728	1.3645	2.26824E-001	1.41916E-004	0.00000E+000	2.28000E-001	-9.29272E-004	10	..........a	-327.74
	2759	1.38	2.57708E-001	1.36401E-004	0.00000E+000	2.59000E-001	-8.29272E-004	10	..........a	-327.74
	2790	1.3955	2.88774E-001	1.31555E-004	0.00000E+000	2.90000E-001	-8.95939E-004	10	..........a	-327.74
	2821	1.411	3.19774E-001	1.25373E-004	0.00000E+000	3.21000E-001	-8.95939E-004	10	..........a	-327.74
	2852	1.4265	3.50808E-001	1.19524E-004	0.00000E+000	3.52000E-001	-8.95939E-004	10	..........a	-327.74
	2883	1.442	3.81824E-001	1.14344E-004	0.00000E+000	3.83000E-001	-8.29272E-004	10	..........a	-327.74
	2914	1.4575	4.12774E-001	1.11002E-004	0.00000E+000	4.14000E-001	-7.95939E-004	10	..........a	-327.74
	2945	1.473	4.43724E-001	1.07326E-004	0.00000E+000	4.45000E-001	-7.62605E-004	10	..........a	-327.74
	2976	1.4885	4.74724E-001	1.04318E-004	0.00000E+000	4.76000E-001	-7.95939E-004	10	..........a	-327.74
	3000	1.5005	4.98808E-001	1.03316E-004	0.00000E+000	5.00000E-001	-8.95939E-004	10	..........a	-327.74
CURVE2	TABLE
	Pt	T	Vf	Im	Vu	Sig	Ach	IERange	Over	Temp
	#	s	V vs. Ref.	A	V	V	V	#	bits	deg C
	3001	1.501	4.98724E-001	9.98066E-005	0.00000E+000	5.00000E-001	-9.29272E-004	10	..........a	-327.74

File: 1mkcl-15btmapaq-nitrogen-3000mvpers.DTA
EXPLAIN
TAG	CV
TITLE	LABEL	Cyclic Voltammetry	Test &Identifier
DATE	LABEL	1/31/2023	Date
TIME	LABEL	18:21:06	Time
NOTES	NOTES	1	&Notes...

PSTAT	PSTAT	REF3000-21108	Potentiostat
VINIT	POTEN	5.00000E-001	F	Initial &E (V)
VLIMIT1	POTEN	-1.00000E+000	F	Scan Limit &1 (V)
VLIMIT2	POTEN	5.00000E-001	F	Scan Limit &2 (V)
VFINAL	POTEN	5.00000E-001	F	Final &E (V)
SCANRATE	QUANT	2.99999E+003	&Scan Rate (mV/s)
STEPSIZE	QUANT	1.00000E+000	St&ep Size (mV)
CYCLES	IQUANT	1	C&ycles (#)
IMODE	SELECTOR	1	I/E Range &Mode
IRANGE	QUANT	1.00000E+001	&Max Current (mA)
AREA	QUANT	1.00000E+000	Electrode &Area (cm^2)
ELECTRODETYPE	SELECTOR	0	Electrode Type
STRIPPING	TOGGLE	F	Used for Stripping
POLARITY	TOGGLE	F	Signal Polarity
CONDIT	TWOPARAM	F	1.50000E+001	0.00000E+000	Conditionin&g	Time(s)	E(V)
DELAY	TWOPARAM	F	5.00000E+000	0.00000E+000	Init. De&lay	Time(s)	Stab.(mV/s)
EQDELAY	QUANT	0.00000E+000	Equil. &Time (s)
IRCOMP	SELECTOR	0	IRCom&p
PFCOR	QUANT	5.00000E+001	PF Corr. (ohm)
SAMPLINGMODE	SELECTOR	1	Sampling &Mode
EOC	QUANT	0	Open Circuit (V)
PSTATMODEL	IQUANT	5	Pstat Model
PSTATSECTION	LABEL	REF3000-21108	Pstat Section
PSTATSERIALNO	LABEL	21108	Pstat Serial Number
CTRLMODE	IQUANT	1	Control Mode
ELECTROMETER	IQUANT	0	RE=0 or CS=1
IESTAB	IQUANT	2	I/E Stability
CASPEED	IQUANT	4	Control Amp Speed
CONVENTION	IQUANT	1	Current Convention
ICHRANGE	IQUANT	2	Ich Range
ICHRANGEMODE	TOGGLE	F	Ich Auto Range
ICHOFFSETENABLE	TOGGLE	F	Ich Offset Enable
ICHOFFSET	QUANT	0	Ich Offset (V)
ICHFILTER	IQUANT	1	Ich Filter
VCHRANGE	IQUANT	2	Vch Range
VCHRANGEMODE	TOGGLE	F	Vch Auto Range
VCHOFFSETENABLE	TOGGLE	F	Vch Offset Enable
VCHOFFSET	QUANT	0	Vch Offset (V)
VCHFILTER	IQUANT	1	Vch Filter
ACHRANGE	IQUANT	2	Ach Range
ACHOFFSETENABLE	TOGGLE	F	Ach Offset Enable
ACHOFFSET	QUANT	0	Ach Offset (V)
ACHFILTER	IQUANT	0	Ach Filter
IERANGELOWERLIMIT	IQUANT	2	I/E Range Lower Limit
IERANGEMODE	TOGGLE	F	I/E AutoRange
IERANGE	IQUANT	10	I/E Range
POSFEEDENABLE	TOGGLE	F	Positive Feedback IR Comp
POSFEEDRESISTANCE	QUANT	0	Positive Feedback Resistance (ohm)
ACHSELECT	IQUANT	0	Ach Select
SENSECABLEID	IQUANT	14	Sense Cable ID
PWRCABLEID	IQUANT	7	Power Cable ID
DCCALDATE	LABEL	11/9/2022	DC Calibration Date
ACCALDATE	LABEL	11/9/2022	AC Calibration Date
THERMOSELECT	IQUANT	1	Thermo Select
FRAMEWORKVERSION	LABEL	7.8.2	Framework Version
INSTRUMENTVERSION	LABEL	4.40	Instrument Version
COMPLIANCEVOLTAGE	IQUANT	0	Compliance Voltage
CURVE1	TABLE
	Pt	T	Vf	Im	Vu	Sig	Ach	IERange	Over	Temp
	#	s	V vs. Ref.	A	V	V	V	#	bits	deg C
	0	0.000333	4.98716E-001	6.72223E-005	0.00000E+000	5.00000E-001	-7.29272E-004	10	..........a	-327.74
	32	0.011	4.66641E-001	3.56406E-005	0.00000E+000	4.68000E-001	-8.29272E-004	10	..........a	-327.74
	64	0.021667	4.34666E-001	2.58653E-005	0.00000E+000	4.36000E-001	-8.29272E-004	10	..........a	-327.74
	96	0.032333	4.02741E-001	1.60900E-005	0.00000E+000	4.04000E-001	-8.29272E-004	10	..........a	-327.74
	128	0.043	3.70766E-001	1.45861E-005	0.00000E+000	3.72000E-001	-9.79272E-004	10	..........a	-327.74
	160	0.053667	3.38691E-001	7.56795E-006	0.00000E+000	3.40000E-001	-7.29272E-004	10	..........a	-327.74
	192	0.064333	3.06741E-001	5.31211E-006	0.00000E+000	3.08000E-001	-8.29272E-004	10	..........a	-327.74
	224	0.075	2.74841E-001	-3.96188E-006	0.00000E+000	2.76000E-001	-8.29272E-004	10	..........a	-327.74
	256	0.085667	2.42766E-001	-6.21772E-006	0.00000E+000	2.44000E-001	-7.29272E-004	10	..........a	-327.74
	288	0.096333	2.10791E-001	-1.07294E-005	0.00000E+000	2.12000E-001	-7.79272E-004	10	..........a	-327.74
	320	0.107	1.78766E-001	-1.32359E-005	0.00000E+000	1.80000E-001	-8.29272E-004	10	..........a	-327.74
	352	0.117667	1.46816E-001	-1.79982E-005	0.00000E+000	1.48000E-001	-8.79272E-004	10	..........a	-327.74
	384	0.128333	1.14866E-001	-1.97527E-005	0.00000E+000	1.16000E-001	-8.29272E-004	10	..........a	-327.74
	416	0.139	8.27660E-002	-2.02540E-005	0.00000E+000	8.40000E-002	-7.29272E-004	10	..........a	-327.74
	448	0.149667	5.08660E-002	-2.25099E-005	0.00000E+000	5.20000E-002	-8.79272E-004	10	..........a	-327.74
	480	0.160333	1.88910E-002	-2.02540E-005	0.00000E+000	2.00000E-002	-7.29272E-004	10	..........a	-327.74
	512	0.171	-1.32090E-002	-2.30112E-005	0.00000E+000	-1.20000E-002	-7.79272E-004	10	..........a	-327.74
	544	0.181667	-4.51340E-002	-2.50164E-005	0.00000E+000	-4.40000E-002	-8.29272E-004	10	..........a	-327.74
	576	0.192333	-7.72340E-002	-2.42644E-005	0.00000E+000	-7.60000E-002	-8.29272E-004	10	..........a	-327.74
	608	0.203	-1.09184E-001	-2.67709E-005	0.00000E+000	-1.08000E-001	-7.29272E-004	10	..........a	-327.74
	640	0.213667	-1.41159E-001	-2.67709E-005	0.00000E+000	-1.40000E-001	-7.79272E-004	10	..........a	-327.74
	672	0.224333	-1.73084E-001	-2.90267E-005	0.00000E+000	-1.72000E-001	-8.29272E-004	10	..........a	-327.74
	704	0.235	-2.05134E-001	-3.40397E-005	0.00000E+000	-2.04000E-001	-7.79272E-004	10	..........a	-327.74
	736	0.245667	-2.37134E-001	-4.00553E-005	0.00000E+000	-2.36000E-001	-7.79272E-004	10	..........a	-327.74
	768	0.256333	-2.69084E-001	-4.48176E-005	0.00000E+000	-2.68000E-001	-7.79272E-004	10	..........a	-327.74
	800	0.267	-3.01059E-001	-4.85773E-005	0.00000E+000	-3.00000E-001	-7.79272E-004	10	..........a	-327.74
	832	0.277667	-3.32959E-001	-5.60968E-005	0.00000E+000	-3.32000E-001	-6.79272E-004	10	..........a	-327.74
	864	0.288333	-3.65034E-001	-6.13604E-005	0.00000E+000	-3.64000E-001	-8.29272E-004	10	..........a	-327.74
	896	0.299	-3.96884E-001	-7.36422E-005	0.00000E+000	-3.96000E-001	-7.79272E-004	10	..........a	-327.74
	928	0.309667	-4.29059E-001	-1.15500E-004	0.00000E+000	-4.28000E-001	-9.29272E-004	10	..........a	-327.74
	960	0.320333	-4.60959E-001	-1.96209E-004	0.00000E+000	-4.60000E-001	-6.79272E-004	10	..........a	-327.74
	992	0.331	-4.93109E-001	-2.80928E-004	0.00000E+000	-4.92000E-001	-8.29272E-004	10	..........a	-327.74
	1024	0.341667	-5.24984E-001	-3.97981E-004	0.00000E+000	-5.24000E-001	-8.79272E-004	10	..........a	-327.74
	1056	0.352333	-5.56959E-001	-6.17048E-004	0.00000E+000	-5.56000E-001	-8.79272E-004	10	..........a	-327.74
	1088	0.363	-5.88934E-001	-8.24334E-004	0.00000E+000	-5.88000E-001	-6.79272E-004	10	..........a	-327.74
	1120	0.373667	-6.21034E-001	-8.68699E-004	0.00000E+000	-6.20000E-001	-8.29272E-004	10	..........a	-327.74
	1152	0.384333	-6.52884E-001	-8.02779E-004	0.00000E+000	-6.52000E-001	-8.79272E-004	10	..........a	-327.74
	1184	0.395	-6.84884E-001	-7.27083E-004	0.00000E+000	-6.84000E-001	-8.29272E-004	10	..........a	-327.74
	1216	0.405667	-7.16834E-001	-6.58405E-004	0.00000E+000	-7.16000E-001	-7.79272E-004	10	..........a	-327.74
	1248	0.416333	-7.48909E-001	-6.07774E-004	0.00000E+000	-7.48000E-001	-7.79272E-004	10	..........a	-327.74
	1280	0.427	-7.80909E-001	-5.66668E-004	0.00000E+000	-7.80000E-001	-8.79272E-004	10	..........a	-327.74
	1312	0.437667	-8.12809E-001	-5.29321E-004	0.00000E+000	-8.12000E-001	-7.29272E-004	10	..........a	-327.74
	1344	0.448333	-8.44759E-001	-5.02502E-004	0.00000E+000	-8.44000E-001	-7.29272E-004	10	..........a	-327.74
	1376	0.459	-8.76859E-001	-4.79442E-004	0.00000E+000	-8.76000E-001	-7.29272E-004	10	..........a	-327.74
	1408	0.469667	-9.08809E-001	-4.56382E-004	0.00000E+000	-9.08000E-001	-7.29272E-004	10	..........a	-327.74
	1440	0.480333	-9.40734E-001	-4.39338E-004	0.00000E+000	-9.40000E-001	-7.79272E-004	10	..........a	-327.74
[...]
	1984	0.661667	-5.16984E-001	1.72745E-004	0.00000E+000	-5.16000E-001	-7.29272E-004	10	..........a	-327.74
	2016	0.672333	-4.84959E-001	2.69997E-004	0.00000E+000	-4.84000E-001	-8.29272E-004	10	..........a	-327.74
	2048	0.683	-4.52909E-001	3.46946E-004	0.00000E+000	-4.52000E-001	-7.29272E-004	10	..........a	-327.74
	2080	0.693667	-4.20984E-001	3.68502E-004	0.00000E+000	-4.20000E-001	-8.29272E-004	10	..........a	-327.74
	2112	0.704333	-3.89159E-001	3.55969E-004	0.00000E+000	-3.88000E-001	-8.29272E-004	10	..........a	-327.74
	2144	0.715	-3.57059E-001	3.34915E-004	0.00000E+000	-3.56000E-001	-7.79272E-004	10	..........a	-327.74
	2176	0.725667	-3.25009E-001	3.20377E-004	0.00000E+000	-3.24000E-001	-7.79272E-004	10	..........a	-327.74
	2208	0.736333	-2.93134E-001	3.07093E-004	0.00000E+000	-2.92000E-001	-8.29272E-004	10	..........a	-327.74
	2240	0.747	-2.61084E-001	2.99323E-004	0.00000E+000	-2.60000E-001	-7.29272E-004	10	..........a	-327.74
	2272	0.757667	-2.29084E-001	2.86540E-004	0.00000E+000	-2.28000E-001	-8.79272E-004	10	..........a	-327.74
	2304	0.768333	-1.97134E-001	2.72253E-004	0.00000E+000	-1.96000E-001	-7.79272E-004	10	..........a	-327.74
	2336	0.779	-1.65184E-001	2.57966E-004	0.00000E+000	-1.64000E-001	-8.29272E-004	10	..........a	-327.74
	2368	0.789667	-1.33184E-001	2.40671E-004	0.00000E+000	-1.32000E-001	-9.29272E-004	10	..........a	-327.74
	2400	0.800333	-1.01209E-001	2.22875E-004	0.00000E+000	-1.00000E-001	-7.79272E-004	10	..........a	-327.74
	2432	0.811	-6.91090E-002	2.10844E-004	0.00000E+000	-6.80000E-002	-8.79272E-004	10	..........a	-327.74
	2464	0.821667	-3.70840E-002	2.02823E-004	0.00000E+000	-3.60000E-002	-7.29272E-004	10	..........a	-327.74
	2496	0.832333	-5.18400E-003	1.94802E-004	0.00000E+000	-4.00001E-003	-8.29272E-004	10	..........a	-327.74
	2528	0.843	2.68410E-002	1.91043E-004	0.00000E+000	2.80000E-002	-8.29272E-004	10	..........a	-327.74
	2560	0.853667	5.87660E-002	1.89288E-004	0.00000E+000	6.00000E-002	-8.29272E-004	10	..........a	-327.74
	2592	0.864333	9.07410E-002	1.90040E-004	0.00000E+000	9.20000E-002	-8.29272E-004	10	..........a	-327.74
	2624	0.875	1.22791E-001	1.88286E-004	0.00000E+000	1.24000E-001	-7.29272E-004	10	..........a	-327.74
	2656	0.885667	1.54766E-001	1.91795E-004	0.00000E+000	1.56000E-001	-8.79272E-004	10	..........a	-327.74
	2688	0.896333	1.86741E-001	1.91544E-004	0.00000E+000	1.88000E-001	-9.29272E-004	10	..........a	-327.74
	2720	0.907	2.18791E-001	1.89789E-004	0.00000E+000	2.20000E-001	-6.29272E-004	10	..........a	-327.74
	2752	0.917667	2.50841E-001	1.84526E-004	0.00000E+000	2.52000E-001	-7.29272E-004	10	..........a	-327.74
	2784	0.928333	2.82791E-001	1.76004E-004	0.00000E+000	2.84000E-001	-8.29272E-004	10	..........a	-327.74
	2816	0.939	3.14691E-001	1.67482E-004	0.00000E+000	3.16000E-001	-8.29272E-004	10	..........a	-327.74
	2848	0.949667	3.46691E-001	1.60213E-004	0.00000E+000	3.48000E-001	-7.79272E-004	10	..........a	-327.74
	2880	0.96033	3.78641E-001	1.54448E-004	0.00000E+000	3.80000E-001	-8.79272E-004	10	..........a	-327.74
	2912	0.971	4.10691E-001	1.45926E-004	0.00000E+000	4.12000E-001	-8.79272E-004	10	..........a	-327.74
	2944	0.98167	4.42691E-001	1.44422E-004	0.00000E+000	4.44000E-001	-8.29272E-004	10	..........a	-327.74
	2976	0.99233	4.74616E-001	1.40662E-004	0.00000E+000	4.76000E-001	-8.29272E-004	10	..........a	-327.74
	3000	1.00033	4.98716E-001	1.40662E-004	0.00000E+000	5.00000E-001	-7.79272E-004	10	..........a	-327.74
CURVE2	TABLE
	Pt	T	Vf	Im	Vu	Sig	Ach	IERange	Over	Temp
	#	s	V vs. Ref.	A	V	V	V	#	bits	deg C
	3001	1.00067	4.98666E-001	1.33393E-004	0.00000E+000	5.00000E-001	-8.79272E-004	10	..........a	-327.74