Folder: 2024-09-QuCO2-NCE/data/02-SI/Figures_S9_S11_RDE/15btmapaq-rde (part 3)

File: 1mkcl-5mmolar15btmapaq-nitrogen-rde1600mvpers-50mvpers.DTA
EXPLAIN
TAG	LSV
TITLE	LABEL	Linear Sweep Voltammetry	Test &Identifier
DATE	LABEL	1/31/2023	Date
TIME	LABEL	18:28:23	Time
NOTES	NOTES	1	&Notes...

PSTAT	PSTAT	REF3000-21108	Potentiostat
VINIT	POTEN	5.00000E-001	F	&Initial E (V)
VFINAL	POTEN	-1.00000E+000	F	&Final E (V)
SCANRATE	QUANT	4.99999E+001	&Scan Rate (mV/s)
STEPSIZE	QUANT	1.00000E-001	St&ep Size (mV)
IMODE	SELECTOR	0	I/E Range &Mode
IRANGE	QUANT	1.00000E+002	&Max Current (mA)
AREA	QUANT	1.00000E+000	Electrode &Area (cm^2)
ELECTRODETYPE	SELECTOR	0	Electrode Type
STRIPPING	TOGGLE	F	Used for Stripping
POLARITY	TOGGLE	F	Signal Polarity
CONDIT	TWOPARAM	F	1.50000E+001	0.00000E+000	Conditionin&g	Time(s)	E(V)
DELAY	TWOPARAM	F	3.00000E+001	0.00000E+000	Init. De&lay	Time(s)	Stab.(mV/s)
EQDELAY	QUANT	0.00000E+000	Equil. &Time (s)
IRCOMP	SELECTOR	0	IRCom&p
PFCOR	QUANT	5.00000E+001	PF Corr. (ohm)
SAMPLINGMODE	SELECTOR	1	Sampling &Mode
EOC	QUANT	0	Open Circuit (V)
PSTATMODEL	IQUANT	5	Pstat Model
PSTATSECTION	LABEL	REF3000-21108	Pstat Section
PSTATSERIALNO	LABEL	21108	Pstat Serial Number
CTRLMODE	IQUANT	1	Control Mode
ELECTROMETER	IQUANT	0	RE=0 or CS=1
IESTAB	IQUANT	2	I/E Stability
CASPEED	IQUANT	4	Control Amp Speed
CONVENTION	IQUANT	1	Current Convention
ICHRANGE	IQUANT	2	Ich Range
ICHRANGEMODE	TOGGLE	F	Ich Auto Range
ICHOFFSETENABLE	TOGGLE	F	Ich Offset Enable
ICHOFFSET	QUANT	0	Ich Offset (V)
ICHFILTER	IQUANT	2	Ich Filter
VCHRANGE	IQUANT	2	Vch Range
VCHRANGEMODE	TOGGLE	T	Vch Auto Range
VCHOFFSETENABLE	TOGGLE	F	Vch Offset Enable
VCHOFFSET	QUANT	0	Vch Offset (V)
VCHFILTER	IQUANT	2	Vch Filter
ACHRANGE	IQUANT	2	Ach Range
ACHOFFSETENABLE	TOGGLE	F	Ach Offset Enable
ACHOFFSET	QUANT	0	Ach Offset (V)
ACHFILTER	IQUANT	0	Ach Filter
IERANGELOWERLIMIT	IQUANT	2	I/E Range Lower Limit
IERANGEMODE	TOGGLE	T	I/E AutoRange
IERANGE	IQUANT	11	I/E Range
POSFEEDENABLE	TOGGLE	F	Positive Feedback IR Comp
POSFEEDRESISTANCE	QUANT	0	Positive Feedback Resistance (ohm)
ACHSELECT	IQUANT	0	Ach Select
SENSECABLEID	IQUANT	14	Sense Cable ID
PWRCABLEID	IQUANT	7	Power Cable ID
DCCALDATE	LABEL	11/9/2022	DC Calibration Date
ACCALDATE	LABEL	11/9/2022	AC Calibration Date
THERMOSELECT	IQUANT	1	Thermo Select
FRAMEWORKVERSION	LABEL	7.8.2	Framework Version
INSTRUMENTVERSION	LABEL	4.40	Instrument Version
COMPLIANCEVOLTAGE	IQUANT	0	Compliance Voltage
CURVE	TABLE	15001
	Pt	T	Vf	Im	Vu	Sig	Ach	IERange	Over	Cycle	Temp
	#	s	V vs. Ref.	A	V	V	V	#	bits	#	deg C
	0	0.002	4.99704E-001	-3.79654E-005	0.00000E+000	5.00000E-001	-8.12605E-004	11	..........a	0	-327.74
	158	0.318	4.82960E-001	2.83132E-006	0.00000E+000	4.84200E-001	-8.20939E-004	8	..........a	0	-327.74
	316	0.634	4.67177E-001	1.59725E-006	0.00000E+000	4.68400E-001	-8.79272E-004	8	..........a	0	-327.74
	474	0.95	4.51381E-001	1.05438E-006	0.00000E+000	4.52600E-001	-8.20939E-004	8	..........a	0	-327.74
	632	1.266	4.35543E-001	7.95646E-007	0.00000E+000	4.36800E-001	-8.54272E-004	8	..........a	0	-327.74
	790	1.582	4.19797E-001	5.44833E-007	0.00000E+000	4.21000E-001	-8.54272E-004	8	..........a	0	-327.74
	948	1.898	4.04052E-001	4.39008E-007	0.00000E+000	4.05200E-001	-8.45939E-004	8	..........a	0	-327.74
	1106	2.214	3.88264E-001	3.14851E-007	0.00000E+000	3.89400E-001	-8.20939E-004	8	..........a	0	-327.74
	1264	2.53	3.72443E-001	3.36516E-007	0.00000E+000	3.73600E-001	-9.45939E-004	8	..........a	0	-327.74
	1422	2.846	3.56635E-001	2.21942E-007	0.00000E+000	3.57800E-001	-8.87605E-004	8	..........a	0	-327.74
	1580	3.162	3.40843E-001	2.35274E-007	0.00000E+000	3.42000E-001	-8.37606E-004	8	..........a	0	-327.74
	1738	3.478	3.25043E-001	1.51114E-007	0.00000E+000	3.26200E-001	-8.54272E-004	8	..........a	0	-327.74
	1896	3.794	3.09256E-001	8.44531E-008	0.00000E+000	3.10400E-001	-8.54272E-004	8	..........a	0	-327.74
	2054	4.11	2.93452E-001	7.86203E-008	0.00000E+000	2.94600E-001	-8.37606E-004	8	..........a	0	-327.74
	2212	4.426	2.77718E-001	2.94576E-008	0.00000E+000	2.78800E-001	-8.62605E-004	8	..........a	0	-327.74
	2370	4.742	2.61902E-001	2.07083E-008	0.00000E+000	2.63000E-001	-8.62605E-004	8	..........a	0	-327.74
	2528	5.058	2.46068E-001	-3.97036E-008	0.00000E+000	2.47200E-001	-8.29272E-004	8	..........a	0	-327.74
	2686	5.374	2.30191E-001	-6.05352E-008	0.00000E+000	2.31400E-001	-8.79272E-004	8	..........a	0	-327.74
	2844	5.69	2.14403E-001	-6.63681E-008	0.00000E+000	2.15600E-001	-8.20939E-004	8	..........a	0	-327.74
	3002	6.006	1.98596E-001	-5.55356E-008	0.00000E+000	1.99800E-001	-8.54272E-004	8	..........a	0	-327.74
	3160	6.322	1.82828E-001	-1.28863E-007	0.00000E+000	1.84000E-001	-8.20939E-004	8	..........a	0	-327.74
	3318	6.638	1.67020E-001	-1.38029E-007	0.00000E+000	1.68200E-001	-8.37606E-004	8	..........a	0	-327.74
	3476	6.954	1.51221E-001	-1.37196E-007	0.00000E+000	1.52400E-001	-8.54272E-004	8	..........a	0	-327.74
	3634	7.27	1.35429E-001	-1.61360E-007	0.00000E+000	1.36600E-001	-8.45939E-004	8	..........a	0	-327.74
	3792	7.586	1.19643E-001	-2.27189E-007	0.00000E+000	1.20800E-001	-8.62605E-004	8	..........a	0	-327.74
	3950	7.902	1.03840E-001	-3.23014E-007	0.00000E+000	1.05000E-001	-8.37606E-004	8	..........a	0	-327.74
	4108	8.218	8.80468E-002	-1.30530E-007	0.00000E+000	8.92000E-002	-8.37606E-004	8	..........a	0	-327.74
	4266	8.534	7.22464E-002	-1.86775E-007	0.00000E+000	7.34000E-002	-8.87605E-004	8	..........a	0	-327.74
	4424	8.85	5.64664E-002	-2.99266E-007	0.00000E+000	5.76000E-002	-8.29272E-004	8	..........a	0	-327.74
	4582	9.166	4.06772E-002	-2.53436E-007	0.00000E+000	4.18000E-002	-8.12605E-004	8	..........a	0	-327.74
	4740	9.482	2.48926E-002	-2.63436E-007	0.00000E+000	2.60000E-002	-8.12605E-004	8	..........a	0	-327.74
	4898	9.798	9.07581E-003	-2.17606E-007	0.00000E+000	1.02000E-002	-8.54272E-004	8	..........a	0	-327.74
	5056	10.114	-6.68594E-003	-3.44262E-007	0.00000E+000	-5.60001E-003	-8.04272E-004	8	..........a	0	-327.74
	5214	10.43	-2.24840E-002	-3.07182E-007	0.00000E+000	-2.14000E-002	-8.04272E-004	8	..........a	0	-327.74
	5372	10.746	-3.82774E-002	-3.55095E-007	0.00000E+000	-3.72000E-002	-7.95939E-004	8	..........a	0	-327.74
	5530	11.062	-5.40853E-002	-3.53845E-007	0.00000E+000	-5.30000E-002	-8.20939E-004	8	..........a	0	-327.74
	5688	11.378	-6.98769E-002	-4.49254E-007	0.00000E+000	-6.88000E-002	-8.29272E-004	8	..........a	0	-327.74
	5846	11.694	-8.56557E-002	-5.59245E-007	0.00000E+000	-8.46000E-002	-8.54272E-004	8	..........a	0	-327.74
	6004	12.01	-1.01459E-001	-7.34231E-007	0.00000E+000	-1.00400E-001	-8.29272E-004	8	..........a	0	-327.74
	6162	12.326	-1.17257E-001	-8.84219E-007	0.00000E+000	-1.16200E-001	-8.04272E-004	8	..........a	0	-327.74
	6320	12.642	-1.33037E-001	-1.18003E-006	0.00000E+000	-1.32000E-001	-8.29272E-004	8	..........a	0	-327.74
	6478	12.958	-1.48834E-001	-1.49125E-006	0.00000E+000	-1.47800E-001	-8.62605E-004	8	..........a	0	-327.74
	6636	13.274	-1.64644E-001	-2.16578E-006	0.00000E+000	-1.63600E-001	-8.29272E-004	8	..........a	0	-327.74
	6794	13.59	-1.80414E-001	-2.88239E-006	0.00000E+000	-1.79400E-001	-7.79272E-004	8	..........a	0	-327.74
	6952	13.906	-1.96213E-001	-4.06521E-006	0.00000E+000	-1.95200E-001	-8.20939E-004	8	..........a	0	-327.74
	7110	14.222	-2.12002E-001	-5.59217E-006	0.00000E+000	-2.11000E-001	-8.29272E-004	8	..........a	0	-327.74
	7268	14.538	-2.27794E-001	-7.61243E-006	0.00000E+000	-2.26800E-001	-8.04272E-004	8	..........a	0	-327.74
[...]
	9796	19.594	-4.80353E-001	-1.04563E-004	0.00000E+000	-4.79600E-001	-8.20939E-004	8	..........a	0	-327.74
	9954	19.91	-4.96123E-001	-1.24926E-004	0.00000E+000	-4.95400E-001	-8.62605E-004	8	..........a	0	-327.74
	10112	20.226	-5.11919E-001	-1.52311E-004	0.00000E+000	-5.11200E-001	-8.29272E-004	8	..........a	0	-327.74
	10270	20.542	-5.27594E-001	-1.88717E-004	0.00000E+000	-5.27000E-001	-8.79272E-004	8	..........a	0	-327.74
	10428	20.858	-5.43394E-001	-2.32662E-004	0.00000E+000	-5.42800E-001	-8.45939E-004	8	..........a	0	-327.74
	10586	21.174	-5.59400E-001	-2.80378E-004	0.00000E+000	-5.58600E-001	-8.70939E-004	9	..........a	0	-327.74
	10744	21.49	-5.75154E-001	-3.22709E-004	0.00000E+000	-5.74400E-001	-8.37606E-004	9	..........a	0	-327.74
	10902	21.806	-5.90896E-001	-3.56936E-004	0.00000E+000	-5.90200E-001	-8.20939E-004	9	..........a	0	-327.74
	11060	22.122	-6.06742E-001	-3.83910E-004	0.00000E+000	-6.06000E-001	-8.12605E-004	9	..........a	0	-327.74
	11218	22.438	-6.22458E-001	-3.99550E-004	0.00000E+000	-6.21800E-001	-8.04272E-004	9	..........a	0	-327.74
	11376	22.754	-6.38308E-001	-4.10962E-004	0.00000E+000	-6.37600E-001	-8.70939E-004	9	..........a	0	-327.74
	11534	23.07	-6.54058E-001	-4.18405E-004	0.00000E+000	-6.53400E-001	-8.20939E-004	9	..........a	0	-327.74
	11692	23.386	-6.69925E-001	-4.24100E-004	0.00000E+000	-6.69200E-001	-9.04272E-004	9	..........a	0	-327.74
	11850	23.702	-6.85683E-001	-4.29186E-004	0.00000E+000	-6.85000E-001	-8.54272E-004	9	..........a	0	-327.74
	12008	24.018	-7.01404E-001	-4.29817E-004	0.00000E+000	-7.00800E-001	-8.29272E-004	9	..........a	0	-327.74
	12166	24.334	-7.17258E-001	-4.33318E-004	0.00000E+000	-7.16600E-001	-8.62605E-004	9	..........a	0	-327.74
	12324	24.65	-7.33050E-001	-4.34041E-004	0.00000E+000	-7.32400E-001	-8.20939E-004	9	..........a	0	-327.74
	12482	24.966	-7.48879E-001	-4.37004E-004	0.00000E+000	-7.48200E-001	-8.54272E-004	9	..........a	0	-327.74
	12640	25.282	-7.64692E-001	-4.37372E-004	0.00000E+000	-7.64000E-001	-8.20939E-004	9	..........a	0	-327.74
	12798	25.598	-7.80392E-001	-4.39411E-004	0.00000E+000	-7.79800E-001	-8.70939E-004	9	..........a	0	-327.74
	12956	25.914	-7.96271E-001	-4.38575E-004	0.00000E+000	-7.95600E-001	-7.95939E-004	9	..........a	0	-327.74
	13114	26.23	-8.11987E-001	-4.39302E-004	0.00000E+000	-8.11400E-001	-8.37606E-004	9	..........a	0	-327.74
	13272	26.546	-8.27829E-001	-4.39971E-004	0.00000E+000	-8.27200E-001	-8.45939E-004	9	..........a	0	-327.74
	13430	26.862	-8.43596E-001	-4.40230E-004	0.00000E+000	-8.43000E-001	-8.62605E-004	9	..........a	0	-327.74
	13588	27.178	-8.59342E-001	-4.41225E-004	0.00000E+000	-8.58800E-001	-8.45939E-004	9	..........a	0	-327.74
	13746	27.494	-8.75162E-001	-4.41730E-004	0.00000E+000	-8.74600E-001	-9.04272E-004	9	..........a	0	-327.74
	13904	27.81	-8.90962E-001	-4.40568E-004	0.00000E+000	-8.90400E-001	-8.45939E-004	9	..........a	0	-327.74
	14062	28.126	-9.06733E-001	-4.42754E-004	0.00000E+000	-9.06200E-001	-8.12605E-004	9	..........a	0	-327.74
	14220	28.442	-9.22562E-001	-4.44141E-004	0.00000E+000	-9.22000E-001	-8.12605E-004	9	..........a	0	-327.74
	14378	28.758	-9.38375E-001	-4.45395E-004	0.00000E+000	-9.37800E-001	-8.45939E-004	9	..........a	0	-327.74
	14536	29.074	-9.54075E-001	-4.42578E-004	0.00000E+000	-9.53600E-001	-8.54272E-004	9	..........a	0	-327.74
	14694	29.39	-9.69933E-001	-4.46164E-004	0.00000E+000	-9.69400E-001	-8.62605E-004	9	..........a	0	-327.74
	14852	29.706	-9.85712E-001	-4.46101E-004	0.00000E+000	-9.85200E-001	-7.79272E-004	9	..........a	0	-327.74
	15000	30.002	-1.00048E+000	-4.46302E-004	0.00000E+000	-1.00000E+000	-7.95939E-004	9	..........a	0	-327.74

File: 1mkcl-5mmolar15btmapaq-nitrogen-rde2500mvpers-50mvpers.DTA
EXPLAIN
TAG	LSV
TITLE	LABEL	Linear Sweep Voltammetry	Test &Identifier
DATE	LABEL	1/31/2023	Date
TIME	LABEL	18:29:19	Time
NOTES	NOTES	1	&Notes...

PSTAT	PSTAT	REF3000-21108	Potentiostat
VINIT	POTEN	5.00000E-001	F	&Initial E (V)
VFINAL	POTEN	-1.00000E+000	F	&Final E (V)
SCANRATE	QUANT	4.99999E+001	&Scan Rate (mV/s)
STEPSIZE	QUANT	1.00000E-001	St&ep Size (mV)
IMODE	SELECTOR	0	I/E Range &Mode
IRANGE	QUANT	1.00000E+002	&Max Current (mA)
AREA	QUANT	1.00000E+000	Electrode &Area (cm^2)
ELECTRODETYPE	SELECTOR	0	Electrode Type
STRIPPING	TOGGLE	F	Used for Stripping
POLARITY	TOGGLE	F	Signal Polarity
CONDIT	TWOPARAM	F	1.50000E+001	0.00000E+000	Conditionin&g	Time(s)	E(V)
DELAY	TWOPARAM	F	3.00000E+001	0.00000E+000	Init. De&lay	Time(s)	Stab.(mV/s)
EQDELAY	QUANT	0.00000E+000	Equil. &Time (s)
IRCOMP	SELECTOR	0	IRCom&p
PFCOR	QUANT	5.00000E+001	PF Corr. (ohm)
SAMPLINGMODE	SELECTOR	1	Sampling &Mode
EOC	QUANT	0	Open Circuit (V)
PSTATMODEL	IQUANT	5	Pstat Model
PSTATSECTION	LABEL	REF3000-21108	Pstat Section
PSTATSERIALNO	LABEL	21108	Pstat Serial Number
CTRLMODE	IQUANT	1	Control Mode
ELECTROMETER	IQUANT	0	RE=0 or CS=1
IESTAB	IQUANT	2	I/E Stability
CASPEED	IQUANT	4	Control Amp Speed
CONVENTION	IQUANT	1	Current Convention
ICHRANGE	IQUANT	2	Ich Range
ICHRANGEMODE	TOGGLE	F	Ich Auto Range
ICHOFFSETENABLE	TOGGLE	F	Ich Offset Enable
ICHOFFSET	QUANT	0	Ich Offset (V)
ICHFILTER	IQUANT	2	Ich Filter
VCHRANGE	IQUANT	2	Vch Range
VCHRANGEMODE	TOGGLE	T	Vch Auto Range
VCHOFFSETENABLE	TOGGLE	F	Vch Offset Enable
VCHOFFSET	QUANT	0	Vch Offset (V)
VCHFILTER	IQUANT	2	Vch Filter
ACHRANGE	IQUANT	2	Ach Range
ACHOFFSETENABLE	TOGGLE	F	Ach Offset Enable
ACHOFFSET	QUANT	0	Ach Offset (V)
ACHFILTER	IQUANT	0	Ach Filter
IERANGELOWERLIMIT	IQUANT	2	I/E Range Lower Limit
IERANGEMODE	TOGGLE	T	I/E AutoRange
IERANGE	IQUANT	11	I/E Range
POSFEEDENABLE	TOGGLE	F	Positive Feedback IR Comp
POSFEEDRESISTANCE	QUANT	0	Positive Feedback Resistance (ohm)
ACHSELECT	IQUANT	0	Ach Select
SENSECABLEID	IQUANT	14	Sense Cable ID
PWRCABLEID	IQUANT	7	Power Cable ID
DCCALDATE	LABEL	11/9/2022	DC Calibration Date
ACCALDATE	LABEL	11/9/2022	AC Calibration Date
THERMOSELECT	IQUANT	1	Thermo Select
FRAMEWORKVERSION	LABEL	7.8.2	Framework Version
INSTRUMENTVERSION	LABEL	4.40	Instrument Version
COMPLIANCEVOLTAGE	IQUANT	0	Compliance Voltage
CURVE	TABLE	15001
	Pt	T	Vf	Im	Vu	Sig	Ach	IERange	Over	Cycle	Temp
	#	s	V vs. Ref.	A	V	V	V	#	bits	#	deg C
	0	0.002	5.00329E-001	-7.38497E-005	0.00000E+000	5.00000E-001	6.20728E-004	11	..........a	0	-327.74
	156	0.314	4.83777E-001	2.87298E-006	0.00000E+000	4.84400E-001	5.29061E-004	8	..........a	0	-327.74
	312	0.626	4.68127E-001	1.64891E-006	0.00000E+000	4.68800E-001	4.62394E-004	8	..........a	0	-327.74
	468	0.938	4.52522E-001	1.19603E-006	0.00000E+000	4.53200E-001	5.04061E-004	8	..........a	0	-327.74
	624	1.25	4.36889E-001	7.57732E-007	0.00000E+000	4.37600E-001	4.95728E-004	8	..........a	0	-327.74
	780	1.562	4.21335E-001	6.86072E-007	0.00000E+000	4.22000E-001	5.45728E-004	8	..........a	0	-327.74
	936	1.874	4.05756E-001	4.31925E-007	0.00000E+000	4.06400E-001	5.54061E-004	8	..........a	0	-327.74
	1092	2.186	3.90139E-001	3.60681E-007	0.00000E+000	3.90800E-001	5.95728E-004	8	..........a	0	-327.74
	1248	2.498	3.74489E-001	2.71938E-007	0.00000E+000	3.75200E-001	5.62394E-004	8	..........a	0	-327.74
	1404	2.81	3.58972E-001	2.22359E-007	0.00000E+000	3.59600E-001	5.37394E-004	8	..........a	0	-327.74
	1560	3.122	3.43410E-001	2.79854E-007	0.00000E+000	3.44000E-001	5.20728E-004	8	..........a	0	-327.74
	1716	3.434	3.27777E-001	1.06118E-007	0.00000E+000	3.28400E-001	4.29061E-004	8	..........a	0	-327.74
	1872	3.746	3.12197E-001	6.86211E-008	0.00000E+000	3.12800E-001	4.45728E-004	8	..........a	0	-327.74
	2028	4.058	2.96535E-001	1.56531E-007	0.00000E+000	2.97200E-001	4.95728E-004	8	..........a	0	-327.74
	2184	4.37	2.80972E-001	7.19541E-008	0.00000E+000	2.81600E-001	4.79061E-004	8	..........a	0	-327.74
	2340	4.682	2.65293E-001	-1.97052E-008	0.00000E+000	2.66000E-001	4.70728E-004	8	..........a	0	-327.74
	2496	4.994	2.49797E-001	-6.76180E-008	0.00000E+000	2.50400E-001	5.95728E-004	8	..........a	0	-327.74
	2652	5.306	2.33633E-001	-7.01178E-008	0.00000E+000	2.34800E-001	4.70728E-004	8	..........a	0	-327.74
	2808	5.618	2.18053E-001	-4.55364E-008	0.00000E+000	2.19200E-001	4.79061E-004	8	..........a	0	-327.74
	2964	5.93	2.02442E-001	-7.84504E-008	0.00000E+000	2.03600E-001	4.70728E-004	8	..........a	0	-327.74
	3120	6.242	1.86854E-001	-1.75943E-007	0.00000E+000	1.88000E-001	4.79061E-004	8	..........a	0	-327.74
	3276	6.554	1.71263E-001	-1.91358E-007	0.00000E+000	1.72400E-001	5.54061E-004	8	..........a	0	-327.74
	3432	6.866	1.55669E-001	-2.38854E-007	0.00000E+000	1.56800E-001	4.95728E-004	8	..........a	0	-327.74
	3588	7.178	1.40078E-001	-1.54278E-007	0.00000E+000	1.41200E-001	5.37394E-004	8	..........a	0	-327.74
	3744	7.49	1.24489E-001	-2.09273E-007	0.00000E+000	1.25600E-001	5.29061E-004	8	..........a	0	-327.74
	3900	7.802	1.08887E-001	-2.24689E-007	0.00000E+000	1.10000E-001	4.79061E-004	8	..........a	0	-327.74
	4056	8.114	9.32981E-002	-2.95516E-007	0.00000E+000	9.44000E-002	6.12394E-004	8	..........a	0	-327.74
	4212	8.426	7.77168E-002	-2.39271E-007	0.00000E+000	7.88000E-002	5.45728E-004	8	..........a	0	-327.74
	4368	8.738	6.21331E-002	-3.03016E-007	0.00000E+000	6.32000E-002	5.87394E-004	8	..........a	0	-327.74
	4524	9.05	4.65364E-002	-2.54686E-007	0.00000E+000	4.76000E-002	5.37394E-004	8	..........a	0	-327.74
	4680	9.362	3.09422E-002	-3.08849E-007	0.00000E+000	3.20000E-002	5.29061E-004	8	..........a	0	-327.74
	4836	9.674	1.52908E-002	-2.17606E-007	0.00000E+000	1.64000E-002	5.70728E-004	8	..........a	0	-327.74
	4992	9.986	-2.85193E-004	-2.38854E-007	0.00000E+000	7.99984E-004	5.29061E-004	8	..........a	0	-327.74
	5148	10.298	-1.58862E-002	-4.34672E-007	0.00000E+000	-1.48000E-002	6.12394E-004	8	..........a	0	-327.74
	5304	10.61	-3.14299E-002	-5.24665E-007	0.00000E+000	-3.04000E-002	4.87394E-004	8	..........a	0	-327.74
	5460	10.922	-4.70286E-002	-4.15507E-007	0.00000E+000	-4.60000E-002	5.70728E-004	8	..........a	0	-327.74
	5616	11.234	-6.26224E-002	-5.23415E-007	0.00000E+000	-6.16000E-002	6.29061E-004	8	..........a	0	-327.74
	5772	11.546	-7.82203E-002	-7.65062E-007	0.00000E+000	-7.72000E-002	5.95728E-004	8	..........a	0	-327.74
	5928	11.858	-9.37907E-002	-6.96317E-007	0.00000E+000	-9.28000E-002	6.54061E-004	8	..........a	0	-327.74
	6084	12.17	-1.09388E-001	-8.50055E-007	0.00000E+000	-1.08400E-001	4.70728E-004	8	..........a	0	-327.74
	6240	12.482	-1.24992E-001	-1.03087E-006	0.00000E+000	-1.24000E-001	5.54061E-004	8	..........a	0	-327.74
	6396	12.794	-1.40584E-001	-1.56375E-006	0.00000E+000	-1.39600E-001	5.54061E-004	8	..........a	0	-327.74
	6552	13.106	-1.56170E-001	-1.87581E-006	0.00000E+000	-1.55200E-001	5.29061E-004	8	..........a	0	-327.74
	6708	13.418	-1.71764E-001	-2.67241E-006	0.00000E+000	-1.70800E-001	4.62394E-004	8	..........a	0	-327.74
	6864	13.73	-1.87351E-001	-3.66900E-006	0.00000E+000	-1.86400E-001	5.62394E-004	8	..........a	0	-327.74
	7020	14.042	-2.02939E-001	-5.24845E-006	0.00000E+000	-2.02000E-001	5.95728E-004	8	..........a	0	-327.74
	7176	14.354	-2.18531E-001	-7.20580E-006	0.00000E+000	-2.17600E-001	5.62394E-004	8	..........a	0	-327.74
	7332	14.666	-2.34112E-001	-9.73559E-006	0.00000E+000	-2.33200E-001	5.87394E-004	8	..........a	0	-327.74
[...]
	9984	19.97	-4.98523E-001	-1.53187E-004	0.00000E+000	-4.98400E-001	5.20728E-004	8	..........a	0	-327.74
	10140	20.282	-5.14115E-001	-1.84042E-004	0.00000E+000	-5.14000E-001	4.54061E-004	8	..........a	0	-327.74
	10296	20.594	-5.29636E-001	-2.26242E-004	0.00000E+000	-5.29600E-001	4.45728E-004	8	..........a	0	-327.74
	10452	20.906	-5.45471E-001	-2.80274E-004	0.00000E+000	-5.45200E-001	5.12394E-004	9	..........a	0	-327.74
	10608	21.218	-5.60987E-001	-3.36970E-004	0.00000E+000	-5.60800E-001	6.04061E-004	9	..........a	0	-327.74
	10764	21.53	-5.76562E-001	-3.89919E-004	0.00000E+000	-5.76400E-001	5.62394E-004	9	..........a	0	-327.74
	10920	21.842	-5.92183E-001	-4.33857E-004	0.00000E+000	-5.92000E-001	5.87394E-004	9	..........a	0	-327.74
	11076	22.154	-6.07787E-001	-4.67889E-004	0.00000E+000	-6.07600E-001	6.20728E-004	9	..........a	0	-327.74
	11232	22.466	-6.23254E-001	-4.90328E-004	0.00000E+000	-6.23200E-001	5.04061E-004	9	..........a	0	-327.74
	11388	22.778	-6.38937E-001	-5.05961E-004	0.00000E+000	-6.38800E-001	5.87394E-004	9	..........a	0	-327.74
	11544	23.09	-6.54479E-001	-5.19161E-004	0.00000E+000	-6.54400E-001	6.37394E-004	9	..........a	0	-327.74
	11700	23.402	-6.70100E-001	-5.24280E-004	0.00000E+000	-6.70000E-001	6.54061E-004	9	..........a	0	-327.74
	11856	23.714	-6.85654E-001	-5.31961E-004	0.00000E+000	-6.85600E-001	6.20728E-004	9	..........a	0	-327.74
	12012	24.026	-7.01304E-001	-5.33640E-004	0.00000E+000	-7.01200E-001	5.54061E-004	9	..........a	0	-327.74
	12168	24.338	-7.16875E-001	-5.36992E-004	0.00000E+000	-7.16800E-001	5.79061E-004	9	..........a	0	-327.74
	12324	24.65	-7.32500E-001	-5.41538E-004	0.00000E+000	-7.32400E-001	5.29061E-004	9	..........a	0	-327.74
	12480	24.962	-7.48096E-001	-5.42992E-004	0.00000E+000	-7.48000E-001	5.87394E-004	9	..........a	0	-327.74
	12636	25.274	-7.63650E-001	-5.44701E-004	0.00000E+000	-7.63600E-001	5.87394E-004	9	..........a	0	-327.74
	12792	25.586	-7.79333E-001	-5.47321E-004	0.00000E+000	-7.79200E-001	5.62394E-004	9	..........a	0	-327.74
	12948	25.898	-7.94883E-001	-5.48295E-004	0.00000E+000	-7.94800E-001	4.79061E-004	9	..........a	0	-327.74
	13104	26.21	-8.10442E-001	-5.48558E-004	0.00000E+000	-8.10400E-001	6.29061E-004	9	..........a	0	-327.74
	13260	26.522	-8.25983E-001	-5.50614E-004	0.00000E+000	-8.26000E-001	4.79061E-004	9	..........a	0	-327.74
	13416	26.834	-8.41625E-001	-5.47944E-004	0.00000E+000	-8.41600E-001	5.54061E-004	9	..........a	0	-327.74
	13572	27.146	-8.57217E-001	-5.53167E-004	0.00000E+000	-8.57200E-001	6.04061E-004	9	..........a	0	-327.74
	13728	27.458	-8.72750E-001	-5.52958E-004	0.00000E+000	-8.72800E-001	6.12394E-004	9	..........a	0	-327.74
	13884	27.77	-8.88437E-001	-5.53184E-004	0.00000E+000	-8.88400E-001	5.20728E-004	9	..........a	0	-327.74
	14040	28.082	-9.04042E-001	-5.52277E-004	0.00000E+000	-9.04000E-001	4.12394E-004	9	..........a	0	-327.74
	14196	28.394	-9.19650E-001	-5.53272E-004	0.00000E+000	-9.19600E-001	4.45728E-004	9	..........a	0	-327.74
	14352	28.706	-9.35154E-001	-5.55056E-004	0.00000E+000	-9.35200E-001	5.37394E-004	9	..........a	0	-327.74
	14508	29.018	-9.50746E-001	-5.56385E-004	0.00000E+000	-9.50800E-001	5.37394E-004	9	..........a	0	-327.74
	14664	29.33	-9.66383E-001	-5.57338E-004	0.00000E+000	-9.66400E-001	5.87394E-004	9	..........a	0	-327.74
	14820	29.642	-9.81975E-001	-5.58065E-004	0.00000E+000	-9.82000E-001	4.62394E-004	9	..........a	0	-327.74
	14976	29.954	-9.97604E-001	-5.58583E-004	0.00000E+000	-9.97600E-001	4.70728E-004	9	..........a	0	-327.74
	15000	30.002	-9.99983E-001	-5.58742E-004	0.00000E+000	-1.00000E+000	4.87394E-004	9	..........a	0	-327.74