Folder: 2024-09-QuCO2-NCE/data/02-SI/Figures_S9_S11_RDE/15btmapaq-rde (part 2)

File: 1mkcl-5mmolar15btmapaq-nitrogen-rde900mvpers-50mvpers.DTA
EXPLAIN
TAG	LSV
TITLE	LABEL	Linear Sweep Voltammetry	Test &Identifier
DATE	LABEL	1/31/2023	Date
TIME	LABEL	18:26:21	Time
NOTES	NOTES	1	&Notes...

PSTAT	PSTAT	REF3000-21108	Potentiostat
VINIT	POTEN	5.00000E-001	F	&Initial E (V)
VFINAL	POTEN	-1.00000E+000	F	&Final E (V)
SCANRATE	QUANT	4.99999E+001	&Scan Rate (mV/s)
STEPSIZE	QUANT	1.00000E-001	St&ep Size (mV)
IMODE	SELECTOR	0	I/E Range &Mode
IRANGE	QUANT	1.00000E+002	&Max Current (mA)
AREA	QUANT	1.00000E+000	Electrode &Area (cm^2)
ELECTRODETYPE	SELECTOR	0	Electrode Type
STRIPPING	TOGGLE	F	Used for Stripping
POLARITY	TOGGLE	F	Signal Polarity
CONDIT	TWOPARAM	F	1.50000E+001	0.00000E+000	Conditionin&g	Time(s)	E(V)
DELAY	TWOPARAM	F	3.00000E+001	0.00000E+000	Init. De&lay	Time(s)	Stab.(mV/s)
EQDELAY	QUANT	0.00000E+000	Equil. &Time (s)
IRCOMP	SELECTOR	0	IRCom&p
PFCOR	QUANT	5.00000E+001	PF Corr. (ohm)
SAMPLINGMODE	SELECTOR	1	Sampling &Mode
EOC	QUANT	0	Open Circuit (V)
PSTATMODEL	IQUANT	5	Pstat Model
PSTATSECTION	LABEL	REF3000-21108	Pstat Section
PSTATSERIALNO	LABEL	21108	Pstat Serial Number
CTRLMODE	IQUANT	1	Control Mode
ELECTROMETER	IQUANT	0	RE=0 or CS=1
IESTAB	IQUANT	2	I/E Stability
CASPEED	IQUANT	4	Control Amp Speed
CONVENTION	IQUANT	1	Current Convention
ICHRANGE	IQUANT	2	Ich Range
ICHRANGEMODE	TOGGLE	F	Ich Auto Range
ICHOFFSETENABLE	TOGGLE	F	Ich Offset Enable
ICHOFFSET	QUANT	0	Ich Offset (V)
ICHFILTER	IQUANT	2	Ich Filter
VCHRANGE	IQUANT	2	Vch Range
VCHRANGEMODE	TOGGLE	T	Vch Auto Range
VCHOFFSETENABLE	TOGGLE	F	Vch Offset Enable
VCHOFFSET	QUANT	0	Vch Offset (V)
VCHFILTER	IQUANT	2	Vch Filter
ACHRANGE	IQUANT	2	Ach Range
ACHOFFSETENABLE	TOGGLE	F	Ach Offset Enable
ACHOFFSET	QUANT	0	Ach Offset (V)
ACHFILTER	IQUANT	0	Ach Filter
IERANGELOWERLIMIT	IQUANT	2	I/E Range Lower Limit
IERANGEMODE	TOGGLE	T	I/E AutoRange
IERANGE	IQUANT	11	I/E Range
POSFEEDENABLE	TOGGLE	F	Positive Feedback IR Comp
POSFEEDRESISTANCE	QUANT	0	Positive Feedback Resistance (ohm)
ACHSELECT	IQUANT	0	Ach Select
SENSECABLEID	IQUANT	14	Sense Cable ID
PWRCABLEID	IQUANT	7	Power Cable ID
DCCALDATE	LABEL	11/9/2022	DC Calibration Date
ACCALDATE	LABEL	11/9/2022	AC Calibration Date
THERMOSELECT	IQUANT	1	Thermo Select
FRAMEWORKVERSION	LABEL	7.8.2	Framework Version
INSTRUMENTVERSION	LABEL	4.40	Instrument Version
COMPLIANCEVOLTAGE	IQUANT	0	Compliance Voltage
CURVE	TABLE	15001
	Pt	T	Vf	Im	Vu	Sig	Ach	IERange	Over	Cycle	Temp
	#	s	V vs. Ref.	A	V	V	V	#	bits	#	deg C
	0	0.002	4.99667E-001	-3.83826E-005	0.00000E+000	5.00000E-001	-8.12605E-004	11	..........a	0	-327.74
	158	0.318	4.82968E-001	2.85673E-006	0.00000E+000	4.84200E-001	-8.12605E-004	8	..........a	0	-327.74
	316	0.634	4.67143E-001	1.45434E-006	0.00000E+000	4.68400E-001	-8.20939E-004	8	..........a	0	-327.74
	474	0.95	4.51302E-001	1.14187E-006	0.00000E+000	4.52600E-001	-8.37606E-004	8	..........a	0	-327.74
	632	1.266	4.35531E-001	7.83980E-007	0.00000E+000	4.36800E-001	-8.12605E-004	8	..........a	0	-327.74
	790	1.582	4.19797E-001	5.66914E-007	0.00000E+000	4.21000E-001	-8.20939E-004	8	..........a	0	-327.74
	948	1.898	4.03989E-001	2.24859E-007	0.00000E+000	4.05200E-001	-8.70939E-004	8	..........a	0	-327.74
	1106	2.214	3.88222E-001	3.84846E-007	0.00000E+000	3.89400E-001	-8.37606E-004	8	..........a	0	-327.74
	1264	2.53	3.72397E-001	3.51515E-007	0.00000E+000	3.73600E-001	-8.29272E-004	8	..........a	0	-327.74
	1422	2.846	3.56643E-001	1.82779E-007	0.00000E+000	3.57800E-001	-8.20939E-004	8	..........a	0	-327.74
	1580	3.162	3.40827E-001	1.37782E-007	0.00000E+000	3.42000E-001	-8.20939E-004	8	..........a	0	-327.74
	1738	3.478	3.25014E-001	7.15375E-008	0.00000E+000	3.26200E-001	-8.12605E-004	8	..........a	0	-327.74
	1896	3.794	3.09260E-001	1.22783E-007	0.00000E+000	3.10400E-001	-8.12605E-004	8	..........a	0	-327.74
	2054	4.11	2.93418E-001	1.06118E-007	0.00000E+000	2.94600E-001	-8.37606E-004	8	..........a	0	-327.74
	2212	4.426	2.77693E-001	7.69537E-008	0.00000E+000	2.78800E-001	-8.04272E-004	8	..........a	0	-327.74
	2370	4.742	2.61935E-001	-2.88711E-008	0.00000E+000	2.63000E-001	-8.12605E-004	8	..........a	0	-327.74
	2528	5.058	2.46043E-001	6.86211E-008	0.00000E+000	2.47200E-001	-8.12605E-004	8	..........a	0	-327.74
	2686	5.374	2.30186E-001	-8.80330E-008	0.00000E+000	2.31400E-001	-8.37606E-004	8	..........a	0	-327.74
	2844	5.69	2.14403E-001	-1.63027E-007	0.00000E+000	2.15600E-001	-8.20939E-004	8	..........a	0	-327.74
	3002	6.006	1.98588E-001	-8.51166E-008	0.00000E+000	1.99800E-001	-8.12605E-004	8	..........a	0	-327.74
	3160	6.322	1.82808E-001	-1.22614E-007	0.00000E+000	1.84000E-001	-8.37606E-004	8	..........a	0	-327.74
	3318	6.638	1.67021E-001	-1.17197E-007	0.00000E+000	1.68200E-001	-8.54272E-004	8	..........a	0	-327.74
	3476	6.954	1.51214E-001	-1.65527E-007	0.00000E+000	1.52400E-001	-8.29272E-004	8	..........a	0	-327.74
	3634	7.27	1.35433E-001	-1.25947E-007	0.00000E+000	1.36600E-001	-7.70939E-004	8	..........a	0	-327.74
	3792	7.586	1.19641E-001	-1.23863E-007	0.00000E+000	1.20800E-001	-8.54272E-004	8	..........a	0	-327.74
	3950	7.902	1.03836E-001	-2.15106E-007	0.00000E+000	1.05000E-001	-7.79272E-004	8	..........a	0	-327.74
	4108	8.218	8.80589E-002	-2.02607E-007	0.00000E+000	8.92000E-002	-8.45939E-004	8	..........a	0	-327.74
	4266	8.534	7.22606E-002	-2.67602E-007	0.00000E+000	7.34000E-002	-8.29272E-004	8	..........a	0	-327.74
	4424	8.85	5.64697E-002	-2.78434E-007	0.00000E+000	5.76000E-002	-8.12605E-004	8	..........a	0	-327.74
	4582	9.166	4.06764E-002	-3.08849E-007	0.00000E+000	4.18000E-002	-7.62605E-004	8	..........a	0	-327.74
	4740	9.482	2.48939E-002	-2.63019E-007	0.00000E+000	2.60000E-002	-8.45939E-004	8	..........a	0	-327.74
	4898	9.798	9.08202E-003	-2.42604E-007	0.00000E+000	1.02000E-002	-8.29272E-004	8	..........a	0	-327.74
	5056	10.114	-6.71598E-003	-3.34263E-007	0.00000E+000	-5.60001E-003	-8.04272E-004	8	..........a	0	-327.74
	5214	10.43	-2.24873E-002	-3.18431E-007	0.00000E+000	-2.14000E-002	-7.95939E-004	8	..........a	0	-327.74
	5372	10.746	-3.82911E-002	-3.38846E-007	0.00000E+000	-3.72000E-002	-8.12605E-004	8	..........a	0	-327.74
	5530	11.062	-5.40769E-002	-3.78426E-007	0.00000E+000	-5.30000E-002	-7.54272E-004	8	..........a	0	-327.74
	5688	11.378	-6.98740E-002	-5.21748E-007	0.00000E+000	-6.88000E-002	-8.29272E-004	8	..........a	0	-327.74
	5846	11.694	-8.56640E-002	-5.98825E-007	0.00000E+000	-8.46000E-002	-7.70939E-004	8	..........a	0	-327.74
	6004	12.01	-1.01459E-001	-7.76728E-007	0.00000E+000	-1.00400E-001	-7.45939E-004	8	..........a	0	-327.74
	6162	12.326	-1.17252E-001	-9.02134E-007	0.00000E+000	-1.16200E-001	-7.87605E-004	8	..........a	0	-327.74
	6320	12.642	-1.33033E-001	-1.11253E-006	0.00000E+000	-1.32000E-001	-7.70939E-004	8	..........a	0	-327.74
	6478	12.958	-1.48818E-001	-1.52917E-006	0.00000E+000	-1.47800E-001	-7.70939E-004	8	..........a	0	-327.74
	6636	13.274	-1.64633E-001	-2.11120E-006	0.00000E+000	-1.63600E-001	-8.12605E-004	8	..........a	0	-327.74
	6794	13.59	-1.80422E-001	-3.07196E-006	0.00000E+000	-1.79400E-001	-7.95939E-004	8	..........a	0	-327.74
	6952	13.906	-1.96204E-001	-4.08271E-006	0.00000E+000	-1.95200E-001	-7.62605E-004	8	..........a	0	-327.74
	7110	14.222	-2.11998E-001	-5.61842E-006	0.00000E+000	-2.11000E-001	-7.62605E-004	8	..........a	0	-327.74
	7268	14.538	-2.27786E-001	-7.65326E-006	0.00000E+000	-2.26800E-001	-7.95939E-004	8	..........a	0	-327.74
[...]
	9796	19.594	-4.80369E-001	-8.71540E-005	0.00000E+000	-4.79600E-001	-8.45939E-004	8	..........a	0	-327.74
	9954	19.91	-4.96173E-001	-1.05041E-004	0.00000E+000	-4.95400E-001	-8.29272E-004	8	..........a	0	-327.74
	10112	20.226	-5.11932E-001	-1.28840E-004	0.00000E+000	-5.11200E-001	-7.70939E-004	8	..........a	0	-327.74
	10270	20.542	-5.27644E-001	-1.59716E-004	0.00000E+000	-5.27000E-001	-8.04272E-004	8	..........a	0	-327.74
	10428	20.858	-5.43428E-001	-1.95322E-004	0.00000E+000	-5.42800E-001	-8.04272E-004	8	..........a	0	-327.74
	10586	21.174	-5.59157E-001	-2.31786E-004	0.00000E+000	-5.58600E-001	-7.79272E-004	8	..........a	0	-327.74
	10744	21.49	-5.74944E-001	-2.62069E-004	0.00000E+000	-5.74400E-001	-8.20939E-004	8	..........a	0	-327.74
	10902	21.806	-5.90900E-001	-2.87637E-004	0.00000E+000	-5.90200E-001	-7.95939E-004	9	..........a	0	-327.74
	11060	22.122	-6.06742E-001	-3.02826E-004	0.00000E+000	-6.06000E-001	-7.79272E-004	9	..........a	0	-327.74
	11218	22.438	-6.22508E-001	-3.11978E-004	0.00000E+000	-6.21800E-001	-8.04272E-004	9	..........a	0	-327.74
	11376	22.754	-6.38317E-001	-3.18045E-004	0.00000E+000	-6.37600E-001	-7.87605E-004	9	..........a	0	-327.74
	11534	23.07	-6.54104E-001	-3.24347E-004	0.00000E+000	-6.53400E-001	-7.95939E-004	9	..........a	0	-327.74
	11692	23.386	-6.69942E-001	-3.24664E-004	0.00000E+000	-6.69200E-001	-8.37606E-004	9	..........a	0	-327.74
	11850	23.702	-6.85662E-001	-3.25935E-004	0.00000E+000	-6.85000E-001	-8.29272E-004	9	..........a	0	-327.74
	12008	24.018	-7.01467E-001	-3.28417E-004	0.00000E+000	-7.00800E-001	-8.20939E-004	9	..........a	0	-327.74
	12166	24.334	-7.17254E-001	-3.29399E-004	0.00000E+000	-7.16600E-001	-8.37606E-004	9	..........a	0	-327.74
	12324	24.65	-7.33096E-001	-3.30122E-004	0.00000E+000	-7.32400E-001	-8.04272E-004	9	..........a	0	-327.74
	12482	24.966	-7.48854E-001	-3.30577E-004	0.00000E+000	-7.48200E-001	-7.87605E-004	9	..........a	0	-327.74
	12640	25.282	-7.64696E-001	-3.30092E-004	0.00000E+000	-7.64000E-001	-7.70939E-004	9	..........a	0	-327.74
	12798	25.598	-7.80446E-001	-3.32767E-004	0.00000E+000	-7.79800E-001	-7.37606E-004	9	..........a	0	-327.74
	12956	25.914	-7.96254E-001	-3.32909E-004	0.00000E+000	-7.95600E-001	-8.20939E-004	9	..........a	0	-327.74
	13114	26.23	-8.12079E-001	-3.32207E-004	0.00000E+000	-8.11400E-001	-7.95939E-004	9	..........a	0	-327.74
	13272	26.546	-8.27725E-001	-3.33790E-004	0.00000E+000	-8.27200E-001	-8.04272E-004	9	..........a	0	-327.74
	13430	26.862	-8.43554E-001	-3.33644E-004	0.00000E+000	-8.43000E-001	-8.12605E-004	9	..........a	0	-327.74
	13588	27.178	-8.59404E-001	-3.33912E-004	0.00000E+000	-8.58800E-001	-8.12605E-004	9	..........a	0	-327.74
	13746	27.494	-8.75175E-001	-3.32700E-004	0.00000E+000	-8.74600E-001	-8.20939E-004	9	..........a	0	-327.74
	13904	27.81	-8.90987E-001	-3.34956E-004	0.00000E+000	-8.90400E-001	-8.04272E-004	9	..........a	0	-327.74
	14062	28.126	-9.06817E-001	-3.34442E-004	0.00000E+000	-9.06200E-001	-8.20939E-004	9	..........a	0	-327.74
	14220	28.442	-9.22567E-001	-3.35541E-004	0.00000E+000	-9.22000E-001	-7.87605E-004	9	..........a	0	-327.74
	14378	28.758	-9.38329E-001	-3.35679E-004	0.00000E+000	-9.37800E-001	-7.62605E-004	9	..........a	0	-327.74
	14536	29.074	-9.54125E-001	-3.34739E-004	0.00000E+000	-9.53600E-001	-7.87605E-004	9	..........a	0	-327.74
	14694	29.39	-9.69979E-001	-3.35119E-004	0.00000E+000	-9.69400E-001	-7.95939E-004	9	..........a	0	-327.74
	14852	29.706	-9.85767E-001	-3.37459E-004	0.00000E+000	-9.85200E-001	-8.04272E-004	9	..........a	0	-327.74
	15000	30.002	-1.00050E+000	-3.36682E-004	0.00000E+000	-1.00000E+000	-8.54272E-004	9	..........a	0	-327.74

File: 1mkcl-5mmolar15btmapaq-nitrogen-rde1200mvpers-50mvpers.DTA
EXPLAIN
TAG	LSV
TITLE	LABEL	Linear Sweep Voltammetry	Test &Identifier
DATE	LABEL	1/31/2023	Date
TIME	LABEL	18:27:22	Time
NOTES	NOTES	1	&Notes...

PSTAT	PSTAT	REF3000-21108	Potentiostat
VINIT	POTEN	5.00000E-001	F	&Initial E (V)
VFINAL	POTEN	-1.00000E+000	F	&Final E (V)
SCANRATE	QUANT	4.99999E+001	&Scan Rate (mV/s)
STEPSIZE	QUANT	1.00000E-001	St&ep Size (mV)
IMODE	SELECTOR	0	I/E Range &Mode
IRANGE	QUANT	1.00000E+002	&Max Current (mA)
AREA	QUANT	1.00000E+000	Electrode &Area (cm^2)
ELECTRODETYPE	SELECTOR	0	Electrode Type
STRIPPING	TOGGLE	F	Used for Stripping
POLARITY	TOGGLE	F	Signal Polarity
CONDIT	TWOPARAM	F	1.50000E+001	0.00000E+000	Conditionin&g	Time(s)	E(V)
DELAY	TWOPARAM	F	3.00000E+001	0.00000E+000	Init. De&lay	Time(s)	Stab.(mV/s)
EQDELAY	QUANT	0.00000E+000	Equil. &Time (s)
IRCOMP	SELECTOR	0	IRCom&p
PFCOR	QUANT	5.00000E+001	PF Corr. (ohm)
SAMPLINGMODE	SELECTOR	1	Sampling &Mode
EOC	QUANT	0	Open Circuit (V)
PSTATMODEL	IQUANT	5	Pstat Model
PSTATSECTION	LABEL	REF3000-21108	Pstat Section
PSTATSERIALNO	LABEL	21108	Pstat Serial Number
CTRLMODE	IQUANT	1	Control Mode
ELECTROMETER	IQUANT	0	RE=0 or CS=1
IESTAB	IQUANT	2	I/E Stability
CASPEED	IQUANT	4	Control Amp Speed
CONVENTION	IQUANT	1	Current Convention
ICHRANGE	IQUANT	2	Ich Range
ICHRANGEMODE	TOGGLE	F	Ich Auto Range
ICHOFFSETENABLE	TOGGLE	F	Ich Offset Enable
ICHOFFSET	QUANT	0	Ich Offset (V)
ICHFILTER	IQUANT	2	Ich Filter
VCHRANGE	IQUANT	2	Vch Range
VCHRANGEMODE	TOGGLE	T	Vch Auto Range
VCHOFFSETENABLE	TOGGLE	F	Vch Offset Enable
VCHOFFSET	QUANT	0	Vch Offset (V)
VCHFILTER	IQUANT	2	Vch Filter
ACHRANGE	IQUANT	2	Ach Range
ACHOFFSETENABLE	TOGGLE	F	Ach Offset Enable
ACHOFFSET	QUANT	0	Ach Offset (V)
ACHFILTER	IQUANT	0	Ach Filter
IERANGELOWERLIMIT	IQUANT	2	I/E Range Lower Limit
IERANGEMODE	TOGGLE	T	I/E AutoRange
IERANGE	IQUANT	11	I/E Range
POSFEEDENABLE	TOGGLE	F	Positive Feedback IR Comp
POSFEEDRESISTANCE	QUANT	0	Positive Feedback Resistance (ohm)
ACHSELECT	IQUANT	0	Ach Select
SENSECABLEID	IQUANT	14	Sense Cable ID
PWRCABLEID	IQUANT	7	Power Cable ID
DCCALDATE	LABEL	11/9/2022	DC Calibration Date
ACCALDATE	LABEL	11/9/2022	AC Calibration Date
THERMOSELECT	IQUANT	1	Thermo Select
FRAMEWORKVERSION	LABEL	7.8.2	Framework Version
INSTRUMENTVERSION	LABEL	4.40	Instrument Version
COMPLIANCEVOLTAGE	IQUANT	0	Compliance Voltage
CURVE	TABLE	15001
	Pt	T	Vf	Im	Vu	Sig	Ach	IERange	Over	Cycle	Temp
	#	s	V vs. Ref.	A	V	V	V	#	bits	#	deg C
	0	0.002	4.99733E-001	-3.21237E-005	0.00000E+000	5.00000E-001	-7.20939E-004	11	..........a	0	-327.74
	158	0.318	4.83077E-001	2.64466E-006	0.00000E+000	4.84200E-001	-9.04272E-004	8	..........a	0	-327.74
	316	0.634	4.67206E-001	1.43476E-006	0.00000E+000	4.68400E-001	-9.20939E-004	8	..........a	0	-327.74
	474	0.95	4.51472E-001	1.01521E-006	0.00000E+000	4.52600E-001	-8.87605E-004	8	..........a	0	-327.74
	632	1.266	4.35797E-001	7.09820E-007	0.00000E+000	4.36800E-001	-8.95939E-004	8	..........a	0	-327.74
	790	1.582	4.19839E-001	4.50257E-007	0.00000E+000	4.21000E-001	-8.70939E-004	8	..........a	0	-327.74
	948	1.898	4.04085E-001	5.54832E-007	0.00000E+000	4.05200E-001	-8.62605E-004	8	..........a	0	-327.74
	1106	2.214	3.88281E-001	3.24850E-007	0.00000E+000	3.89400E-001	-8.79272E-004	8	..........a	0	-327.74
	1264	2.53	3.72593E-001	2.29858E-007	0.00000E+000	3.73600E-001	-8.70939E-004	8	..........a	0	-327.74
	1422	2.846	3.56747E-001	1.75279E-007	0.00000E+000	3.57800E-001	-8.29272E-004	8	..........a	0	-327.74
	1580	3.162	3.40822E-001	1.83612E-007	0.00000E+000	3.42000E-001	-9.04272E-004	8	..........a	0	-327.74
	1738	3.478	3.25102E-001	9.32024E-008	0.00000E+000	3.26200E-001	-8.95939E-004	8	..........a	0	-327.74
	1896	3.794	3.09385E-001	9.73688E-008	0.00000E+000	3.10400E-001	-9.20939E-004	8	..........a	0	-327.74
	2054	4.11	2.93481E-001	2.65411E-008	0.00000E+000	2.94600E-001	-8.87605E-004	8	..........a	0	-327.74
	2212	4.426	2.77681E-001	3.20966E-009	0.00000E+000	2.78800E-001	-8.62605E-004	8	..........a	0	-327.74
	2370	4.742	2.61893E-001	8.19533E-008	0.00000E+000	2.63000E-001	-8.87605E-004	8	..........a	0	-327.74
	2528	5.058	2.46260E-001	-2.72046E-008	0.00000E+000	2.47200E-001	-8.54272E-004	8	..........a	0	-327.74
	2686	5.374	2.30200E-001	-2.67879E-008	0.00000E+000	2.31400E-001	-9.29272E-004	8	..........a	0	-327.74
	2844	5.69	2.14404E-001	-1.37196E-007	0.00000E+000	2.15600E-001	-7.87605E-004	8	..........a	0	-327.74
	3002	6.006	1.98617E-001	-1.56361E-007	0.00000E+000	1.99800E-001	-9.62605E-004	8	..........a	0	-327.74
	3160	6.322	1.82815E-001	-1.30530E-007	0.00000E+000	1.84000E-001	-9.37606E-004	8	..........a	0	-327.74
	3318	6.638	1.67019E-001	-1.27197E-007	0.00000E+000	1.68200E-001	-8.62605E-004	8	..........a	0	-327.74
	3476	6.954	1.51241E-001	-1.73859E-007	0.00000E+000	1.52400E-001	-8.87605E-004	8	..........a	0	-327.74
	3634	7.27	1.35437E-001	-1.23863E-007	0.00000E+000	1.36600E-001	-8.95939E-004	8	..........a	0	-327.74
	3792	7.586	1.19661E-001	-1.98441E-007	0.00000E+000	1.20800E-001	-8.20939E-004	8	..........a	0	-327.74
	3950	7.902	1.03854E-001	-1.94691E-007	0.00000E+000	1.05000E-001	-8.87605E-004	8	..........a	0	-327.74
	4108	8.218	8.80610E-002	-2.40937E-007	0.00000E+000	8.92000E-002	-8.62605E-004	8	..........a	0	-327.74
	4266	8.534	7.22756E-002	-2.40937E-007	0.00000E+000	7.34000E-002	-8.62605E-004	8	..........a	0	-327.74
	4424	8.85	5.64835E-002	-2.71768E-007	0.00000E+000	5.76000E-002	-8.79272E-004	8	..........a	0	-327.74
	4582	9.166	4.06793E-002	-3.34263E-007	0.00000E+000	4.18000E-002	-9.20939E-004	8	..........a	0	-327.74
	4740	9.482	2.49156E-002	-1.81359E-007	0.00000E+000	2.60000E-002	-9.20939E-004	8	..........a	0	-327.74
	4898	9.798	9.06885E-003	-3.32597E-007	0.00000E+000	1.02000E-002	-8.62605E-004	8	..........a	0	-327.74
	5056	10.114	-6.70753E-003	-2.03857E-007	0.00000E+000	-5.60001E-003	-8.45939E-004	8	..........a	0	-327.74
	5214	10.43	-2.24941E-002	-3.24264E-007	0.00000E+000	-2.14000E-002	-8.54272E-004	8	..........a	0	-327.74
	5372	10.746	-3.82769E-002	-3.08015E-007	0.00000E+000	-3.72000E-002	-8.79272E-004	8	..........a	0	-327.74
	5530	11.062	-5.40724E-002	-3.98425E-007	0.00000E+000	-5.30000E-002	-9.04272E-004	8	..........a	0	-327.74
	5688	11.378	-6.98719E-002	-4.78418E-007	0.00000E+000	-6.88000E-002	-8.54272E-004	8	..........a	0	-327.74
	5846	11.694	-8.56474E-002	-5.66328E-007	0.00000E+000	-8.46000E-002	-8.29272E-004	8	..........a	0	-327.74
	6004	12.01	-1.01448E-001	-7.27148E-007	0.00000E+000	-1.00400E-001	-9.04272E-004	8	..........a	0	-327.74
	6162	12.326	-1.17239E-001	-8.64637E-007	0.00000E+000	-1.16200E-001	-8.62605E-004	8	..........a	0	-327.74
	6320	12.642	-1.33028E-001	-1.07129E-006	0.00000E+000	-1.32000E-001	-8.37606E-004	8	..........a	0	-327.74
	6478	12.958	-1.48809E-001	-1.51875E-006	0.00000E+000	-1.47800E-001	-8.29272E-004	8	..........a	0	-327.74
	6636	13.274	-1.64627E-001	-2.21745E-006	0.00000E+000	-1.63600E-001	-8.12605E-004	8	..........a	0	-327.74
	6794	13.59	-1.80395E-001	-2.92156E-006	0.00000E+000	-1.79400E-001	-8.87605E-004	8	..........a	0	-327.74
	6952	13.906	-1.96219E-001	-4.10938E-006	0.00000E+000	-1.95200E-001	-9.12605E-004	8	..........a	0	-327.74
	7110	14.222	-2.11993E-001	-5.57843E-006	0.00000E+000	-2.11000E-001	-8.70939E-004	8	..........a	0	-327.74
	7268	14.538	-2.27792E-001	-7.52827E-006	0.00000E+000	-2.26800E-001	-8.95939E-004	8	..........a	0	-327.74
[...]
	9796	19.594	-4.80332E-001	-9.52587E-005	0.00000E+000	-4.79600E-001	-9.29272E-004	8	..........a	0	-327.74
	9954	19.91	-4.96036E-001	-1.14178E-004	0.00000E+000	-4.95400E-001	-9.12605E-004	8	..........a	0	-327.74
	10112	20.226	-5.11923E-001	-1.39910E-004	0.00000E+000	-5.11200E-001	-8.95939E-004	8	..........a	0	-327.74
	10270	20.542	-5.27603E-001	-1.73102E-004	0.00000E+000	-5.27000E-001	-9.45939E-004	8	..........a	0	-327.74
	10428	20.858	-5.43269E-001	-2.12847E-004	0.00000E+000	-5.42800E-001	-8.87605E-004	8	..........a	0	-327.74
	10586	21.174	-5.59119E-001	-2.54005E-004	0.00000E+000	-5.58600E-001	-9.12605E-004	8	..........a	0	-327.74
	10744	21.49	-5.75079E-001	-2.91431E-004	0.00000E+000	-5.74400E-001	-8.54272E-004	9	..........a	0	-327.74
	10902	21.806	-5.90796E-001	-3.20018E-004	0.00000E+000	-5.90200E-001	-8.87605E-004	9	..........a	0	-327.74
	11060	22.122	-6.06679E-001	-3.38646E-004	0.00000E+000	-6.06000E-001	-8.45939E-004	9	..........a	0	-327.74
	11218	22.438	-6.22437E-001	-3.52152E-004	0.00000E+000	-6.21800E-001	-8.79272E-004	9	..........a	0	-327.74
	11376	22.754	-6.38329E-001	-3.62448E-004	0.00000E+000	-6.37600E-001	-9.04272E-004	9	..........a	0	-327.74
	11534	23.07	-6.54050E-001	-3.68766E-004	0.00000E+000	-6.53400E-001	-9.20939E-004	9	..........a	0	-327.74
	11692	23.386	-6.69750E-001	-3.71382E-004	0.00000E+000	-6.69200E-001	-8.62605E-004	9	..........a	0	-327.74
	11850	23.702	-6.85608E-001	-3.74449E-004	0.00000E+000	-6.85000E-001	-9.29272E-004	9	..........a	0	-327.74
	12008	24.018	-7.01304E-001	-3.75903E-004	0.00000E+000	-7.00800E-001	-8.70939E-004	9	..........a	0	-327.74
	12166	24.334	-7.17096E-001	-3.76070E-004	0.00000E+000	-7.16600E-001	-8.62605E-004	9	..........a	0	-327.74
	12324	24.65	-7.33054E-001	-3.78686E-004	0.00000E+000	-7.32400E-001	-9.12605E-004	9	..........a	0	-327.74
	12482	24.966	-7.48779E-001	-3.79869E-004	0.00000E+000	-7.48200E-001	-9.12605E-004	9	..........a	0	-327.74
	12640	25.282	-7.64717E-001	-3.79271E-004	0.00000E+000	-7.64000E-001	-8.79272E-004	9	..........a	0	-327.74
	12798	25.598	-7.80167E-001	-3.82355E-004	0.00000E+000	-7.79800E-001	-8.79272E-004	9	..........a	0	-327.74
	12956	25.914	-7.96150E-001	-3.80721E-004	0.00000E+000	-7.95600E-001	-8.87605E-004	9	..........a	0	-327.74
	13114	26.23	-8.12004E-001	-3.82042E-004	0.00000E+000	-8.11400E-001	-9.04272E-004	9	..........a	0	-327.74
	13272	26.546	-8.27708E-001	-3.84035E-004	0.00000E+000	-8.27200E-001	-8.62605E-004	9	..........a	0	-327.74
	13430	26.862	-8.43433E-001	-3.84461E-004	0.00000E+000	-8.43000E-001	-8.37606E-004	9	..........a	0	-327.74
	13588	27.178	-8.59342E-001	-3.83132E-004	0.00000E+000	-8.58800E-001	-8.70939E-004	9	..........a	0	-327.74
	13746	27.494	-8.75154E-001	-3.84670E-004	0.00000E+000	-8.74600E-001	-7.87605E-004	9	..........a	0	-327.74
	13904	27.81	-8.90987E-001	-3.85903E-004	0.00000E+000	-8.90400E-001	-8.62605E-004	9	..........a	0	-327.74
	14062	28.126	-9.06525E-001	-3.86634E-004	0.00000E+000	-9.06200E-001	-8.54272E-004	9	..........a	0	-327.74
	14220	28.442	-9.22458E-001	-3.85602E-004	0.00000E+000	-9.22000E-001	-8.87605E-004	9	..........a	0	-327.74
	14378	28.758	-9.38342E-001	-3.87378E-004	0.00000E+000	-9.37800E-001	-8.37606E-004	9	..........a	0	-327.74
	14536	29.074	-9.54017E-001	-3.86960E-004	0.00000E+000	-9.53600E-001	-8.45939E-004	9	..........a	0	-327.74
	14694	29.39	-9.69825E-001	-3.86881E-004	0.00000E+000	-9.69400E-001	-8.79272E-004	9	..........a	0	-327.74
	14852	29.706	-9.85687E-001	-3.86968E-004	0.00000E+000	-9.85200E-001	-7.87605E-004	9	..........a	0	-327.74
	15000	30.002	-1.00025E+000	-3.87867E-004	0.00000E+000	-1.00000E+000	-8.54272E-004	9	..........a	0	-327.74