Folder: 2024-09-QuCO2-NCE/data/02-SI/Figures_S9_S11_RDE/15btmapaq-rde (part 8)

File: 1mkcl-15btmapaq-nitrogen-900mvpers.DTA
EXPLAIN
TAG	CV
TITLE	LABEL	Cyclic Voltammetry	Test &Identifier
DATE	LABEL	1/31/2023	Date
TIME	LABEL	18:20:17	Time
NOTES	NOTES	1	&Notes...

PSTAT	PSTAT	REF3000-21108	Potentiostat
VINIT	POTEN	5.00000E-001	F	Initial &E (V)
VLIMIT1	POTEN	-1.00000E+000	F	Scan Limit &1 (V)
VLIMIT2	POTEN	5.00000E-001	F	Scan Limit &2 (V)
VFINAL	POTEN	5.00000E-001	F	Final &E (V)
SCANRATE	QUANT	8.95521E+002	&Scan Rate (mV/s)
STEPSIZE	QUANT	1.00000E+000	St&ep Size (mV)
CYCLES	IQUANT	1	C&ycles (#)
IMODE	SELECTOR	1	I/E Range &Mode
IRANGE	QUANT	1.00000E+001	&Max Current (mA)
AREA	QUANT	1.00000E+000	Electrode &Area (cm^2)
ELECTRODETYPE	SELECTOR	0	Electrode Type
STRIPPING	TOGGLE	F	Used for Stripping
POLARITY	TOGGLE	F	Signal Polarity
CONDIT	TWOPARAM	F	1.50000E+001	0.00000E+000	Conditionin&g	Time(s)	E(V)
DELAY	TWOPARAM	F	5.00000E+000	0.00000E+000	Init. De&lay	Time(s)	Stab.(mV/s)
EQDELAY	QUANT	0.00000E+000	Equil. &Time (s)
IRCOMP	SELECTOR	0	IRCom&p
PFCOR	QUANT	5.00000E+001	PF Corr. (ohm)
SAMPLINGMODE	SELECTOR	1	Sampling &Mode
EOC	QUANT	0	Open Circuit (V)
PSTATMODEL	IQUANT	5	Pstat Model
PSTATSECTION	LABEL	REF3000-21108	Pstat Section
PSTATSERIALNO	LABEL	21108	Pstat Serial Number
CTRLMODE	IQUANT	1	Control Mode
ELECTROMETER	IQUANT	0	RE=0 or CS=1
IESTAB	IQUANT	2	I/E Stability
CASPEED	IQUANT	4	Control Amp Speed
CONVENTION	IQUANT	1	Current Convention
ICHRANGE	IQUANT	2	Ich Range
ICHRANGEMODE	TOGGLE	F	Ich Auto Range
ICHOFFSETENABLE	TOGGLE	F	Ich Offset Enable
ICHOFFSET	QUANT	0	Ich Offset (V)
ICHFILTER	IQUANT	1	Ich Filter
VCHRANGE	IQUANT	2	Vch Range
VCHRANGEMODE	TOGGLE	F	Vch Auto Range
VCHOFFSETENABLE	TOGGLE	F	Vch Offset Enable
VCHOFFSET	QUANT	0	Vch Offset (V)
VCHFILTER	IQUANT	1	Vch Filter
ACHRANGE	IQUANT	2	Ach Range
ACHOFFSETENABLE	TOGGLE	F	Ach Offset Enable
ACHOFFSET	QUANT	0	Ach Offset (V)
ACHFILTER	IQUANT	0	Ach Filter
IERANGELOWERLIMIT	IQUANT	2	I/E Range Lower Limit
IERANGEMODE	TOGGLE	F	I/E AutoRange
IERANGE	IQUANT	10	I/E Range
POSFEEDENABLE	TOGGLE	F	Positive Feedback IR Comp
POSFEEDRESISTANCE	QUANT	0	Positive Feedback Resistance (ohm)
ACHSELECT	IQUANT	0	Ach Select
SENSECABLEID	IQUANT	14	Sense Cable ID
PWRCABLEID	IQUANT	7	Power Cable ID
DCCALDATE	LABEL	11/9/2022	DC Calibration Date
ACCALDATE	LABEL	11/9/2022	AC Calibration Date
THERMOSELECT	IQUANT	1	Thermo Select
FRAMEWORKVERSION	LABEL	7.8.2	Framework Version
INSTRUMENTVERSION	LABEL	4.40	Instrument Version
COMPLIANCEVOLTAGE	IQUANT	0	Compliance Voltage
CURVE1	TABLE
	Pt	T	Vf	Im	Vu	Sig	Ach	IERange	Over	Temp
	#	s	V vs. Ref.	A	V	V	V	#	bits	deg C
	0	0.001117	4.98637E-001	5.17206E-005	0.00000E+000	5.00000E-001	-8.43558E-004	10	..........a	-327.74
	32	0.03685	4.66468E-001	2.32624E-005	0.00000E+000	4.67850E-001	-8.14986E-004	10	..........a	-327.74
	64	0.072583	4.34368E-001	1.40848E-005	0.00000E+000	4.35700E-001	-7.72129E-004	10	..........a	-327.74
	96	0.108317	4.02176E-001	8.30061E-006	0.00000E+000	4.03500E-001	-8.43558E-004	10	..........a	-327.74
	128	0.14405	3.70014E-001	4.21311E-006	0.00000E+000	3.71350E-001	-8.43558E-004	10	..........a	-327.74
	160	0.179783	3.37860E-001	2.36217E-006	0.00000E+000	3.39200E-001	-8.86415E-004	10	..........a	-327.74
	192	0.215517	3.05714E-001	-2.95929E-006	0.00000E+000	3.07050E-001	-8.43558E-004	10	..........a	-327.74
	224	0.25125	2.73622E-001	-5.81283E-006	0.00000E+000	2.74900E-001	-8.57844E-004	10	..........a	-327.74
	256	0.286983	2.41414E-001	-7.20103E-006	0.00000E+000	2.42700E-001	-9.14986E-004	10	..........a	-327.74
	288	0.322717	2.09245E-001	-9.36047E-006	0.00000E+000	2.10550E-001	-8.43558E-004	10	..........a	-327.74
	320	0.35845	1.77199E-001	-1.09800E-005	0.00000E+000	1.78400E-001	-8.57844E-004	10	..........a	-327.74
	352	0.394183	1.45083E-001	-1.23682E-005	0.00000E+000	1.46250E-001	-8.29272E-004	10	..........a	-327.74
	384	0.429917	1.12891E-001	-1.28310E-005	0.00000E+000	1.14100E-001	-8.72129E-004	10	..........a	-327.74
	416	0.46565	8.06910E-002	-1.46048E-005	0.00000E+000	8.19000E-002	-8.57844E-004	10	..........a	-327.74
	448	0.501383	4.85602E-002	-1.38336E-005	0.00000E+000	4.97500E-002	-8.43558E-004	10	..........a	-327.74
	480	0.537117	1.64064E-002	-1.46819E-005	0.00000E+000	1.76000E-002	-8.57844E-004	10	..........a	-327.74
	512	0.57285	-1.57782E-002	-1.59159E-005	0.00000E+000	-1.45500E-002	-8.00701E-004	10	..........a	-327.74
	544	0.608583	-4.79013E-002	-1.56845E-005	0.00000E+000	-4.67000E-002	-8.00701E-004	10	..........a	-327.74
	576	0.644317	-8.00321E-002	-1.60701E-005	0.00000E+000	-7.89000E-002	-7.72129E-004	10	..........a	-327.74
	608	0.68005	-1.12255E-001	-1.76897E-005	0.00000E+000	-1.11050E-001	-8.14986E-004	10	..........a	-327.74
	640	0.715783	-1.44371E-001	-1.79982E-005	0.00000E+000	-1.43200E-001	-8.29272E-004	10	..........a	-327.74
	672	0.751517	-1.76424E-001	-1.98491E-005	0.00000E+000	-1.75350E-001	-8.43558E-004	10	..........a	-327.74
	704	0.78725	-2.08624E-001	-2.13145E-005	0.00000E+000	-2.07500E-001	-9.29272E-004	10	..........a	-327.74
	736	0.822983	-2.40747E-001	-2.31654E-005	0.00000E+000	-2.39700E-001	-8.86415E-004	10	..........a	-327.74
	768	0.858717	-2.72924E-001	-2.53248E-005	0.00000E+000	-2.71850E-001	-8.14986E-004	10	..........a	-327.74
	800	0.89445	-3.05055E-001	-2.71758E-005	0.00000E+000	-3.04000E-001	-8.29272E-004	10	..........a	-327.74
	832	0.930183	-3.37186E-001	-3.04149E-005	0.00000E+000	-3.36150E-001	-8.00701E-004	10	..........a	-327.74
	864	0.96592	-3.69332E-001	-3.38083E-005	0.00000E+000	-3.68300E-001	-7.72129E-004	10	..........a	-327.74
	896	1.00165	-4.01486E-001	-4.70734E-005	0.00000E+000	-4.00500E-001	-8.14986E-004	10	..........a	-327.74
	928	1.03738	-4.33694E-001	-8.20100E-005	0.00000E+000	-4.32650E-001	-7.57844E-004	10	..........a	-327.74
	960	1.07312	-4.65809E-001	-1.33219E-004	0.00000E+000	-4.64800E-001	-8.29272E-004	10	..........a	-327.74
	992	1.10885	-4.98001E-001	-1.83503E-004	0.00000E+000	-4.96950E-001	-8.43558E-004	10	..........a	-327.74
	1024	1.14458	-5.30086E-001	-2.73505E-004	0.00000E+000	-5.29100E-001	-8.14986E-004	10	..........a	-327.74
	1056	1.18032	-5.62286E-001	-4.08856E-004	0.00000E+000	-5.61300E-001	-8.43558E-004	10	..........a	-327.74
	1088	1.21605	-5.94401E-001	-4.83510E-004	0.00000E+000	-5.93450E-001	-8.86415E-004	10	..........a	-327.74
	1120	1.25178	-6.26555E-001	-4.63767E-004	0.00000E+000	-6.25600E-001	-8.00701E-004	10	..........a	-327.74
	1152	1.28752	-6.58755E-001	-4.10629E-004	0.00000E+000	-6.57750E-001	-8.29272E-004	10	..........a	-327.74
	1184	1.32325	-6.90786E-001	-3.68135E-004	0.00000E+000	-6.89900E-001	-8.29272E-004	10	..........a	-327.74
	1216	1.35898	-7.23001E-001	-3.35820E-004	0.00000E+000	-7.22100E-001	-8.43558E-004	10	..........a	-327.74
	1248	1.39472	-7.55117E-001	-3.09445E-004	0.00000E+000	-7.54250E-001	-8.29272E-004	10	..........a	-327.74
	1280	1.43045	-7.87294E-001	-2.90318E-004	0.00000E+000	-7.86400E-001	-8.14986E-004	10	..........a	-327.74
	1312	1.46618	-8.19455E-001	-2.74508E-004	0.00000E+000	-8.18550E-001	-9.29272E-004	10	..........a	-327.74
	1344	1.50192	-8.51586E-001	-2.61166E-004	0.00000E+000	-8.50700E-001	-8.43558E-004	10	..........a	-327.74
	1376	1.53765	-8.83709E-001	-2.49212E-004	0.00000E+000	-8.82900E-001	-8.43558E-004	10	..........a	-327.74
	1408	1.57338	-9.15824E-001	-2.39726E-004	0.00000E+000	-9.15050E-001	-8.14986E-004	10	..........a	-327.74
	1440	1.60912	-9.47971E-001	-2.31628E-004	0.00000E+000	-9.47200E-001	-8.29272E-004	10	..........a	-327.74
[...]
	1984	2.21658	-5.05978E-001	1.23676E-004	0.00000E+000	-5.05000E-001	-8.43558E-004	10	..........a	-327.74
	2016	2.25232	-4.73894E-001	1.83060E-004	0.00000E+000	-4.72850E-001	-9.14986E-004	10	..........a	-327.74
	2048	2.28805	-4.41647E-001	2.11133E-004	0.00000E+000	-4.40700E-001	-8.29272E-004	10	..........a	-327.74
	2080	2.32378	-4.09570E-001	2.02958E-004	0.00000E+000	-4.08500E-001	-8.14986E-004	10	..........a	-327.74
	2112	2.35952	-3.77340E-001	1.84603E-004	0.00000E+000	-3.76350E-001	-8.57844E-004	10	..........a	-327.74
	2144	2.39525	-3.45201E-001	1.68561E-004	0.00000E+000	-3.44200E-001	-8.57844E-004	10	..........a	-327.74
	2176	2.43098	-3.13117E-001	1.56299E-004	0.00000E+000	-3.12050E-001	-9.29272E-004	10	..........a	-327.74
	2208	2.46672	-2.80986E-001	1.47044E-004	0.00000E+000	-2.79900E-001	-9.00701E-004	10	..........a	-327.74
	2240	2.50245	-2.48747E-001	1.38946E-004	0.00000E+000	-2.47700E-001	-8.86415E-004	10	..........a	-327.74
	2272	2.53818	-2.16540E-001	1.31234E-004	0.00000E+000	-2.15550E-001	-9.14986E-004	10	..........a	-327.74
	2304	2.57392	-1.84463E-001	1.21439E-004	0.00000E+000	-1.83400E-001	-8.43558E-004	10	..........a	-327.74
	2336	2.60965	-1.52417E-001	1.13650E-004	0.00000E+000	-1.51250E-001	-8.86415E-004	10	..........a	-327.74
	2368	2.64538	-1.20294E-001	1.05784E-004	0.00000E+000	-1.19100E-001	-8.00701E-004	10	..........a	-327.74
	2400	2.68112	-8.80936E-002	9.72230E-005	0.00000E+000	-8.69000E-002	-8.57844E-004	10	..........a	-327.74
	2432	2.71685	-5.59551E-002	9.23643E-005	0.00000E+000	-5.47500E-002	-8.00701E-004	10	..........a	-327.74
	2464	2.75258	-2.38167E-002	8.78140E-005	0.00000E+000	-2.26000E-002	-8.29272E-004	10	..........a	-327.74
	2496	2.78832	8.39100E-003	8.38808E-005	0.00000E+000	9.55001E-003	-8.57844E-004	10	..........a	-327.74
	2528	2.82405	4.04987E-002	8.11815E-005	0.00000E+000	4.17000E-002	-8.29272E-004	10	..........a	-327.74
	2560	2.85978	7.27218E-002	8.08730E-005	0.00000E+000	7.39000E-002	-8.57844E-004	10	..........a	-327.74
	2592	2.89552	1.04837E-001	7.76338E-005	0.00000E+000	1.06050E-001	-8.57844E-004	10	..........a	-327.74
	2624	2.93125	1.36983E-001	7.67855E-005	0.00000E+000	1.38200E-001	-8.57844E-004	10	..........a	-327.74
	2656	2.96698	1.69137E-001	7.74796E-005	0.00000E+000	1.70350E-001	-8.57844E-004	10	..........a	-327.74
	2688	3.00272	2.01253E-001	7.72482E-005	0.00000E+000	2.02500E-001	-8.29272E-004	10	..........a	-327.74
	2720	3.03845	2.33383E-001	7.72482E-005	0.00000E+000	2.34700E-001	-7.86415E-004	10	..........a	-327.74
	2752	3.07418	2.65591E-001	7.35463E-005	0.00000E+000	2.66850E-001	-9.00701E-004	10	..........a	-327.74
	2784	3.10992	2.97637E-001	6.94588E-005	0.00000E+000	2.99000E-001	-8.29272E-004	10	..........a	-327.74
	2816	3.14565	3.29845E-001	6.62968E-005	0.00000E+000	3.31150E-001	-8.72129E-004	10	..........a	-327.74
	2848	3.18138	3.61937E-001	6.22093E-005	0.00000E+000	3.63300E-001	-8.43558E-004	10	..........a	-327.74
	2880	3.21712	3.94168E-001	5.89702E-005	0.00000E+000	3.95500E-001	-8.86415E-004	10	..........a	-327.74
	2912	3.25285	4.26306E-001	5.70421E-005	0.00000E+000	4.27650E-001	-8.29272E-004	10	..........a	-327.74
	2944	3.28858	4.58468E-001	5.59624E-005	0.00000E+000	4.59800E-001	-8.29272E-004	10	..........a	-327.74
	2976	3.32432	4.90576E-001	5.26461E-005	0.00000E+000	4.91950E-001	-8.29272E-004	10	..........a	-327.74
	2984	3.33325	4.98683E-001	5.33402E-005	0.00000E+000	5.00000E-001	-8.43558E-004	10	..........a	-327.74
CURVE2	TABLE
	Pt	T	Vf	Im	Vu	Sig	Ach	IERange	Over	Temp
	#	s	V vs. Ref.	A	V	V	V	#	bits	deg C
	2985	3.33437	4.98660E-001	5.17206E-005	0.00000E+000	5.00000E-001	-8.29272E-004	10	..........a	-327.74

File: 1mkcl-15btmapaq-nitrogen-1000mvpers.DTA
EXPLAIN
TAG	CV
TITLE	LABEL	Cyclic Voltammetry	Test &Identifier
DATE	LABEL	1/31/2023	Date
TIME	LABEL	18:20:40	Time
NOTES	NOTES	1	&Notes...

PSTAT	PSTAT	REF3000-21108	Potentiostat
VINIT	POTEN	5.00000E-001	F	Initial &E (V)
VLIMIT1	POTEN	-1.00000E+000	F	Scan Limit &1 (V)
VLIMIT2	POTEN	5.00000E-001	F	Scan Limit &2 (V)
VFINAL	POTEN	5.00000E-001	F	Final &E (V)
SCANRATE	QUANT	9.99998E+002	&Scan Rate (mV/s)
STEPSIZE	QUANT	1.00000E+000	St&ep Size (mV)
CYCLES	IQUANT	1	C&ycles (#)
IMODE	SELECTOR	1	I/E Range &Mode
IRANGE	QUANT	1.00000E+001	&Max Current (mA)
AREA	QUANT	1.00000E+000	Electrode &Area (cm^2)
ELECTRODETYPE	SELECTOR	0	Electrode Type
STRIPPING	TOGGLE	F	Used for Stripping
POLARITY	TOGGLE	F	Signal Polarity
CONDIT	TWOPARAM	F	1.50000E+001	0.00000E+000	Conditionin&g	Time(s)	E(V)
DELAY	TWOPARAM	F	5.00000E+000	0.00000E+000	Init. De&lay	Time(s)	Stab.(mV/s)
EQDELAY	QUANT	0.00000E+000	Equil. &Time (s)
IRCOMP	SELECTOR	0	IRCom&p
PFCOR	QUANT	5.00000E+001	PF Corr. (ohm)
SAMPLINGMODE	SELECTOR	1	Sampling &Mode
EOC	QUANT	0	Open Circuit (V)
PSTATMODEL	IQUANT	5	Pstat Model
PSTATSECTION	LABEL	REF3000-21108	Pstat Section
PSTATSERIALNO	LABEL	21108	Pstat Serial Number
CTRLMODE	IQUANT	1	Control Mode
ELECTROMETER	IQUANT	0	RE=0 or CS=1
IESTAB	IQUANT	2	I/E Stability
CASPEED	IQUANT	4	Control Amp Speed
CONVENTION	IQUANT	1	Current Convention
ICHRANGE	IQUANT	2	Ich Range
ICHRANGEMODE	TOGGLE	F	Ich Auto Range
ICHOFFSETENABLE	TOGGLE	F	Ich Offset Enable
ICHOFFSET	QUANT	0	Ich Offset (V)
ICHFILTER	IQUANT	1	Ich Filter
VCHRANGE	IQUANT	2	Vch Range
VCHRANGEMODE	TOGGLE	F	Vch Auto Range
VCHOFFSETENABLE	TOGGLE	F	Vch Offset Enable
VCHOFFSET	QUANT	0	Vch Offset (V)
VCHFILTER	IQUANT	1	Vch Filter
ACHRANGE	IQUANT	2	Ach Range
ACHOFFSETENABLE	TOGGLE	F	Ach Offset Enable
ACHOFFSET	QUANT	0	Ach Offset (V)
ACHFILTER	IQUANT	0	Ach Filter
IERANGELOWERLIMIT	IQUANT	2	I/E Range Lower Limit
IERANGEMODE	TOGGLE	F	I/E AutoRange
IERANGE	IQUANT	10	I/E Range
POSFEEDENABLE	TOGGLE	F	Positive Feedback IR Comp
POSFEEDRESISTANCE	QUANT	0	Positive Feedback Resistance (ohm)
ACHSELECT	IQUANT	0	Ach Select
SENSECABLEID	IQUANT	14	Sense Cable ID
PWRCABLEID	IQUANT	7	Power Cable ID
DCCALDATE	LABEL	11/9/2022	DC Calibration Date
ACCALDATE	LABEL	11/9/2022	AC Calibration Date
THERMOSELECT	IQUANT	1	Thermo Select
FRAMEWORKVERSION	LABEL	7.8.2	Framework Version
INSTRUMENTVERSION	LABEL	4.40	Instrument Version
COMPLIANCEVOLTAGE	IQUANT	0	Compliance Voltage
CURVE1	TABLE
	Pt	T	Vf	Im	Vu	Sig	Ach	IERange	Over	Temp
	#	s	V vs. Ref.	A	V	V	V	#	bits	deg C
	0	0.001	4.98741E-001	6.12903E-005	0.00000E+000	5.00000E-001	-8.79272E-004	10	..........a	-327.74
	31	0.032	4.67683E-001	3.75622E-005	0.00000E+000	4.69000E-001	-8.45939E-004	10	..........a	-327.74
	62	0.063	4.36791E-001	2.72856E-005	0.00000E+000	4.38000E-001	-8.29272E-004	10	..........a	-327.74
	93	0.094	4.05699E-001	1.86800E-005	0.00000E+000	4.07000E-001	-7.95939E-004	10	..........a	-327.74
	124	0.125	3.74791E-001	1.55887E-005	0.00000E+000	3.76000E-001	-8.45939E-004	10	..........a	-327.74
	155	0.156	3.43691E-001	1.21632E-005	0.00000E+000	3.45000E-001	-9.12605E-004	10	..........a	-327.74
	186	0.187	3.12699E-001	1.10770E-005	0.00000E+000	3.14000E-001	-8.62605E-004	10	..........a	-327.74
	217	0.218	2.81799E-001	5.14501E-006	0.00000E+000	2.83000E-001	-8.29272E-004	10	..........a	-327.74
	248	0.249	2.50799E-001	2.38788E-006	0.00000E+000	2.52000E-001	-8.79272E-004	10	..........a	-327.74
	279	0.28	2.19708E-001	9.67536E-007	0.00000E+000	2.21000E-001	-8.12605E-004	10	..........a	-327.74
	310	0.311	1.88808E-001	-3.79478E-006	0.00000E+000	1.90000E-001	-7.95939E-004	10	..........a	-327.74
	341	0.342	1.57749E-001	-5.04803E-006	0.00000E+000	1.59000E-001	-7.95939E-004	10	..........a	-327.74
	372	0.373	1.26808E-001	-6.63547E-006	0.00000E+000	1.28000E-001	-8.29272E-004	10	..........a	-327.74
	403	0.404	9.58743E-002	-6.80257E-006	0.00000E+000	9.70000E-002	-7.79272E-004	10	..........a	-327.74
	434	0.435	6.48577E-002	-7.22031E-006	0.00000E+000	6.60000E-002	-8.45939E-004	10	..........a	-327.74
	465	0.466	3.38410E-002	-8.55711E-006	0.00000E+000	3.50000E-002	-8.45939E-004	10	..........a	-327.74
	496	0.497	2.84100E-003	-9.64325E-006	0.00000E+000	4.00001E-003	-8.62605E-004	10	..........a	-327.74
	527	0.528	-2.81757E-002	-9.05840E-006	0.00000E+000	-2.70000E-002	-7.62605E-004	10	..........a	-327.74
	558	0.559	-5.90340E-002	-1.00610E-005	0.00000E+000	-5.80000E-002	-7.95939E-004	10	..........a	-327.74
	589	0.59	-9.01090E-002	-1.07294E-005	0.00000E+000	-8.90000E-002	-7.62605E-004	10	..........a	-327.74
	620	0.621	-1.21126E-001	-1.17320E-005	0.00000E+000	-1.20000E-001	-7.95939E-004	10	..........a	-327.74
	651	0.652	-1.52142E-001	-1.35701E-005	0.00000E+000	-1.51000E-001	-8.12605E-004	10	..........a	-327.74
	682	0.683	-1.83042E-001	-1.44891E-005	0.00000E+000	-1.82000E-001	-7.45939E-004	10	..........a	-327.74
	713	0.714	-2.14051E-001	-1.72463E-005	0.00000E+000	-2.13000E-001	-8.45939E-004	10	..........a	-327.74
	744	0.745	-2.45051E-001	-1.98363E-005	0.00000E+000	-2.44000E-001	-7.29272E-004	10	..........a	-327.74
	775	0.776	-2.76059E-001	-2.15908E-005	0.00000E+000	-2.75000E-001	-8.12605E-004	10	..........a	-327.74
	806	0.807	-3.07059E-001	-2.42644E-005	0.00000E+000	-3.06000E-001	-7.12606E-004	10	..........a	-327.74
	837	0.838	-3.37984E-001	-2.75228E-005	0.00000E+000	-3.37000E-001	-8.29272E-004	10	..........a	-327.74
	868	0.869	-3.69151E-001	-3.29536E-005	0.00000E+000	-3.68000E-001	-8.79272E-004	10	..........a	-327.74
	899	0.9	-4.00042E-001	-4.23947E-005	0.00000E+000	-3.99000E-001	-7.45939E-004	10	..........a	-327.74
	930	0.931	-4.30942E-001	-7.23889E-005	0.00000E+000	-4.30000E-001	-8.12605E-004	10	..........a	-327.74
	961	0.962	-4.62001E-001	-1.22435E-004	0.00000E+000	-4.61000E-001	-7.45939E-004	10	..........a	-327.74
	992	0.993	-4.92842E-001	-1.76826E-004	0.00000E+000	-4.92000E-001	-8.29272E-004	10	..........a	-327.74
	1023	1.024	-5.23867E-001	-2.53524E-004	0.00000E+000	-5.23000E-001	-7.95939E-004	10	..........a	-327.74
	1054	1.055	-5.54901E-001	-3.86786E-004	0.00000E+000	-5.54000E-001	-8.29272E-004	10	..........a	-327.74
	1085	1.086	-5.85976E-001	-4.86794E-004	0.00000E+000	-5.85000E-001	-9.29272E-004	10	..........a	-327.74
	1116	1.117	-6.17001E-001	-4.94982E-004	0.00000E+000	-6.16000E-001	-7.95939E-004	10	..........a	-327.74
	1147	1.148	-6.47809E-001	-4.43850E-004	0.00000E+000	-6.47000E-001	-7.45939E-004	10	..........a	-327.74
	1178	1.179	-6.78876E-001	-3.95893E-004	0.00000E+000	-6.78000E-001	-7.45939E-004	10	..........a	-327.74
	1209	1.21	-7.09901E-001	-3.57376E-004	0.00000E+000	-7.09000E-001	-7.79272E-004	10	..........a	-327.74
	1240	1.241	-7.40817E-001	-3.28301E-004	0.00000E+000	-7.40000E-001	-7.45939E-004	10	..........a	-327.74
	1271	1.272	-7.71901E-001	-3.08082E-004	0.00000E+000	-7.71000E-001	-9.29272E-004	10	..........a	-327.74
	1302	1.303	-8.02817E-001	-2.89952E-004	0.00000E+000	-8.02000E-001	-7.79272E-004	10	..........a	-327.74
	1333	1.334	-8.33784E-001	-2.74996E-004	0.00000E+000	-8.33000E-001	-8.79272E-004	10	..........a	-327.74
	1364	1.365	-8.64826E-001	-2.61461E-004	0.00000E+000	-8.64000E-001	-8.29272E-004	10	..........a	-327.74
	1395	1.396	-8.95801E-001	-2.49597E-004	0.00000E+000	-8.95000E-001	-8.62605E-004	10	..........a	-327.74
	1426	1.427	-9.26784E-001	-2.41744E-004	0.00000E+000	-9.26000E-001	-8.95939E-004	10	..........a	-327.74
[...]
	1984	1.985	-5.17017E-001	1.08913E-004	0.00000E+000	-5.16000E-001	-8.95939E-004	10	..........a	-327.74
	2015	2.016	-4.86001E-001	1.76672E-004	0.00000E+000	-4.85000E-001	-8.29272E-004	10	..........a	-327.74
	2046	2.047	-4.55026E-001	2.21956E-004	0.00000E+000	-4.54000E-001	-8.79272E-004	10	..........a	-327.74
	2077	2.078	-4.23967E-001	2.28055E-004	0.00000E+000	-4.23000E-001	-8.12605E-004	10	..........a	-327.74
	2108	2.109	-3.93134E-001	2.12766E-004	0.00000E+000	-3.92000E-001	-8.29272E-004	10	..........a	-327.74
	2139	2.14	-3.62017E-001	1.94385E-004	0.00000E+000	-3.61000E-001	-8.29272E-004	10	..........a	-327.74
	2170	2.171	-3.30984E-001	1.80098E-004	0.00000E+000	-3.30000E-001	-8.95939E-004	10	..........a	-327.74
	2201	2.202	-3.00051E-001	1.70657E-004	0.00000E+000	-2.99000E-001	-8.29272E-004	10	..........a	-327.74
	2232	2.233	-2.69059E-001	1.62803E-004	0.00000E+000	-2.68000E-001	-7.95939E-004	10	..........a	-327.74
	2263	2.264	-2.38042E-001	1.55200E-004	0.00000E+000	-2.37000E-001	-8.12605E-004	10	..........a	-327.74
	2294	2.295	-2.06992E-001	1.46009E-004	0.00000E+000	-2.06000E-001	-7.62605E-004	10	..........a	-327.74
	2325	2.326	-1.76092E-001	1.35232E-004	0.00000E+000	-1.75000E-001	-8.45939E-004	10	..........a	-327.74
	2356	2.357	-1.45117E-001	1.26125E-004	0.00000E+000	-1.44000E-001	-8.29272E-004	10	..........a	-327.74
	2387	2.388	-1.14067E-001	1.18020E-004	0.00000E+000	-1.13000E-001	-8.45939E-004	10	..........a	-327.74
	2418	2.419	-8.29923E-002	1.09498E-004	0.00000E+000	-8.20000E-002	-8.62605E-004	10	..........a	-327.74
	2449	2.45	-5.21590E-002	1.05822E-004	0.00000E+000	-5.10000E-002	-8.79272E-004	10	..........a	-327.74
	2480	2.481	-2.11423E-002	9.81356E-005	0.00000E+000	-2.00000E-002	-8.12605E-004	10	..........a	-327.74
	2511	2.512	9.87434E-003	9.52949E-005	0.00000E+000	1.10000E-002	-7.95939E-004	10	..........a	-327.74
	2542	2.543	4.08660E-002	9.42923E-005	0.00000E+000	4.20000E-002	-8.12605E-004	10	..........a	-327.74
	2573	2.574	7.18660E-002	9.24542E-005	0.00000E+000	7.30000E-002	-7.95939E-004	10	..........a	-327.74
	2604	2.605	1.02783E-001	9.10339E-005	0.00000E+000	1.04000E-001	-8.45939E-004	10	..........a	-327.74
	2635	2.636	1.33833E-001	8.98642E-005	0.00000E+000	1.35000E-001	-8.45939E-004	10	..........a	-327.74
	2666	2.667	1.64874E-001	9.02820E-005	0.00000E+000	1.66000E-001	-8.29272E-004	10	..........a	-327.74
	2697	2.698	1.95791E-001	8.91123E-005	0.00000E+000	1.97000E-001	-8.29272E-004	10	..........a	-327.74
	2728	2.729	2.26824E-001	8.71906E-005	0.00000E+000	2.28000E-001	-7.95939E-004	10	..........a	-327.74
	2759	2.76	2.57799E-001	8.32638E-005	0.00000E+000	2.59000E-001	-7.95939E-004	10	..........a	-327.74
	2790	2.791	2.88691E-001	8.02560E-005	0.00000E+000	2.90000E-001	-8.45939E-004	10	..........a	-327.74
	2821	2.822	3.19783E-001	7.65798E-005	0.00000E+000	3.21000E-001	-7.79272E-004	10	..........a	-327.74
	2852	2.853	3.50741E-001	7.39062E-005	0.00000E+000	3.52000E-001	-8.62605E-004	10	..........a	-327.74
	2883	2.884	3.81716E-001	7.08985E-005	0.00000E+000	3.83000E-001	-8.62605E-004	10	..........a	-327.74
	2914	2.915	4.12683E-001	6.76400E-005	0.00000E+000	4.14000E-001	-8.62605E-004	10	..........a	-327.74
	2945	2.946	4.43624E-001	6.53007E-005	0.00000E+000	4.45000E-001	-8.12605E-004	10	..........a	-327.74
	2976	2.977	4.74758E-001	6.36297E-005	0.00000E+000	4.76000E-001	-8.95939E-004	10	..........a	-327.74
	3000	3.001	4.98633E-001	6.10396E-005	0.00000E+000	5.00000E-001	-8.79272E-004	10	..........a	-327.74
CURVE2	TABLE
	Pt	T	Vf	Im	Vu	Sig	Ach	IERange	Over	Temp
	#	s	V vs. Ref.	A	V	V	V	#	bits	deg C
	3001	3.002	4.98708E-001	6.03712E-005	0.00000E+000	5.00000E-001	-8.45939E-004	10	..........a	-327.74