Folder: 2024-09-QuCO2-NCE/data/02-SI/Figures_S9_S11_RDE/18btmapaq-rde (part 2)

File: 1mkcl-5mmolar18btmapaq-nitrogen-rde-900mvpers-50mvpers.DTA
EXPLAIN
TAG	LSV
TITLE	LABEL	Linear Sweep Voltammetry	Test &Identifier
DATE	LABEL	1/31/2023	Date
TIME	LABEL	15:28:49	Time
NOTES	NOTES	1	&Notes...

PSTAT	PSTAT	REF3000-21108	Potentiostat
VINIT	POTEN	5.00000E-001	F	&Initial E (V)
VFINAL	POTEN	-1.00000E+000	F	&Final E (V)
SCANRATE	QUANT	4.99999E+001	&Scan Rate (mV/s)
STEPSIZE	QUANT	1.00000E-001	St&ep Size (mV)
IMODE	SELECTOR	0	I/E Range &Mode
IRANGE	QUANT	1.00000E+002	&Max Current (mA)
AREA	QUANT	1.00000E+000	Electrode &Area (cm^2)
ELECTRODETYPE	SELECTOR	0	Electrode Type
STRIPPING	TOGGLE	F	Used for Stripping
POLARITY	TOGGLE	F	Signal Polarity
CONDIT	TWOPARAM	F	1.50000E+001	0.00000E+000	Conditionin&g	Time(s)	E(V)
DELAY	TWOPARAM	F	3.00000E+001	0.00000E+000	Init. De&lay	Time(s)	Stab.(mV/s)
EQDELAY	QUANT	0.00000E+000	Equil. &Time (s)
IRCOMP	SELECTOR	0	IRCom&p
PFCOR	QUANT	5.00000E+001	PF Corr. (ohm)
SAMPLINGMODE	SELECTOR	1	Sampling &Mode
EOC	QUANT	0	Open Circuit (V)
PSTATMODEL	IQUANT	5	Pstat Model
PSTATSECTION	LABEL	REF3000-21108	Pstat Section
PSTATSERIALNO	LABEL	21108	Pstat Serial Number
CTRLMODE	IQUANT	1	Control Mode
ELECTROMETER	IQUANT	0	RE=0 or CS=1
IESTAB	IQUANT	2	I/E Stability
CASPEED	IQUANT	4	Control Amp Speed
CONVENTION	IQUANT	1	Current Convention
ICHRANGE	IQUANT	2	Ich Range
ICHRANGEMODE	TOGGLE	F	Ich Auto Range
ICHOFFSETENABLE	TOGGLE	F	Ich Offset Enable
ICHOFFSET	QUANT	0	Ich Offset (V)
ICHFILTER	IQUANT	2	Ich Filter
VCHRANGE	IQUANT	2	Vch Range
VCHRANGEMODE	TOGGLE	T	Vch Auto Range
VCHOFFSETENABLE	TOGGLE	F	Vch Offset Enable
VCHOFFSET	QUANT	0	Vch Offset (V)
VCHFILTER	IQUANT	2	Vch Filter
ACHRANGE	IQUANT	2	Ach Range
ACHOFFSETENABLE	TOGGLE	F	Ach Offset Enable
ACHOFFSET	QUANT	0	Ach Offset (V)
ACHFILTER	IQUANT	0	Ach Filter
IERANGELOWERLIMIT	IQUANT	2	I/E Range Lower Limit
IERANGEMODE	TOGGLE	T	I/E AutoRange
IERANGE	IQUANT	11	I/E Range
POSFEEDENABLE	TOGGLE	F	Positive Feedback IR Comp
POSFEEDRESISTANCE	QUANT	0	Positive Feedback Resistance (ohm)
ACHSELECT	IQUANT	0	Ach Select
SENSECABLEID	IQUANT	14	Sense Cable ID
PWRCABLEID	IQUANT	7	Power Cable ID
DCCALDATE	LABEL	11/9/2022	DC Calibration Date
ACCALDATE	LABEL	11/9/2022	AC Calibration Date
THERMOSELECT	IQUANT	1	Thermo Select
FRAMEWORKVERSION	LABEL	7.8.2	Framework Version
INSTRUMENTVERSION	LABEL	4.40	Instrument Version
COMPLIANCEVOLTAGE	IQUANT	0	Compliance Voltage
CURVE	TABLE	15001
	Pt	T	Vf	Im	Vu	Sig	Ach	IERange	Over	Cycle	Temp
	#	s	V vs. Ref.	A	V	V	V	#	bits	#	deg C
	0	0.002	4.99613E-001	-3.33755E-005	0.00000E+000	5.00000E-001	-7.04272E-004	11	..........a	0	-327.74
	158	0.318	4.83002E-001	4.44869E-006	0.00000E+000	4.84200E-001	-8.04272E-004	8	..........a	0	-327.74
	316	0.634	4.67143E-001	2.91339E-006	0.00000E+000	4.68400E-001	-7.70939E-004	8	..........a	0	-327.74
	474	0.95	4.51318E-001	2.45968E-006	0.00000E+000	4.52600E-001	-7.45939E-004	8	..........a	0	-327.74
	632	1.266	4.35568E-001	1.98930E-006	0.00000E+000	4.36800E-001	-7.29272E-004	8	..........a	0	-327.74
	790	1.582	4.19764E-001	1.77015E-006	0.00000E+000	4.21000E-001	-7.87605E-004	8	..........a	0	-327.74
	948	1.898	4.04056E-001	1.44434E-006	0.00000E+000	4.05200E-001	-7.45939E-004	8	..........a	0	-327.74
	1106	2.214	3.88247E-001	1.37893E-006	0.00000E+000	3.89400E-001	-7.79272E-004	8	..........a	0	-327.74
	1264	2.53	3.72443E-001	1.03938E-006	0.00000E+000	3.73600E-001	-8.12605E-004	8	..........a	0	-327.74
	1422	2.846	3.56639E-001	6.23160E-007	0.00000E+000	3.57800E-001	-7.12606E-004	8	..........a	0	-327.74
	1580	3.162	3.40822E-001	4.15677E-007	0.00000E+000	3.42000E-001	-7.62605E-004	8	..........a	0	-327.74
	1738	3.478	3.25022E-001	4.98587E-007	0.00000E+000	3.26200E-001	-7.70939E-004	8	..........a	0	-327.74
	1896	3.794	3.09256E-001	1.15284E-007	0.00000E+000	3.10400E-001	-8.04272E-004	8	..........a	0	-327.74
	2054	4.11	2.93481E-001	3.22767E-007	0.00000E+000	2.94600E-001	-7.54272E-004	8	..........a	0	-327.74
	2212	4.426	2.77760E-001	1.41949E-007	0.00000E+000	2.78800E-001	-7.87605E-004	8	..........a	0	-327.74
	2370	4.742	2.61914E-001	9.98686E-008	0.00000E+000	2.63000E-001	-7.70939E-004	8	..........a	0	-327.74
	2528	5.058	2.46106E-001	9.98686E-008	0.00000E+000	2.47200E-001	-7.79272E-004	8	..........a	0	-327.74
	2686	5.374	2.30178E-001	8.36199E-008	0.00000E+000	2.31400E-001	-7.54272E-004	8	..........a	0	-327.74
	2844	5.69	2.14376E-001	-8.87270E-009	0.00000E+000	2.15600E-001	-7.45939E-004	8	..........a	0	-327.74
	3002	6.006	1.98571E-001	-3.47040E-008	0.00000E+000	1.99800E-001	-7.95939E-004	8	..........a	0	-327.74
	3160	6.322	1.82799E-001	4.07066E-008	0.00000E+000	1.84000E-001	-7.79272E-004	8	..........a	0	-327.74
	3318	6.638	1.67003E-001	-1.26224E-008	0.00000E+000	1.68200E-001	-8.20939E-004	8	..........a	0	-327.74
	3476	6.954	1.51210E-001	2.73744E-008	0.00000E+000	1.52400E-001	-7.37606E-004	8	..........a	0	-327.74
	3634	7.27	1.35416E-001	-9.96987E-008	0.00000E+000	1.36600E-001	-8.20939E-004	8	..........a	0	-327.74
	3792	7.586	1.19636E-001	-9.63657E-008	0.00000E+000	1.20800E-001	-7.54272E-004	8	..........a	0	-327.74
	3950	7.902	1.03826E-001	-1.60111E-007	0.00000E+000	1.05000E-001	-7.37606E-004	8	..........a	0	-327.74
	4108	8.218	8.80239E-002	-9.71989E-008	0.00000E+000	8.92000E-002	-7.70939E-004	8	..........a	0	-327.74
	4266	8.534	7.22389E-002	-2.63019E-007	0.00000E+000	7.34000E-002	-7.45939E-004	8	..........a	0	-327.74
	4424	8.85	5.64535E-002	-1.70526E-007	0.00000E+000	5.76000E-002	-7.70939E-004	8	..........a	0	-327.74
	4582	9.166	4.06660E-002	9.87579E-009	0.00000E+000	4.18000E-002	-7.45939E-004	8	..........a	0	-327.74
	4740	9.482	2.48589E-002	-9.17827E-008	0.00000E+000	2.60000E-002	-7.54272E-004	8	..........a	0	-327.74
	4898	9.798	9.05572E-003	-2.06357E-007	0.00000E+000	1.02000E-002	-6.87606E-004	8	..........a	0	-327.74
	5056	10.114	-6.72478E-003	-3.15515E-007	0.00000E+000	-5.60001E-003	-7.20939E-004	8	..........a	0	-327.74
	5214	10.43	-2.25111E-002	-2.18439E-007	0.00000E+000	-2.14000E-002	-7.04272E-004	8	..........a	0	-327.74
	5372	10.746	-3.83053E-002	-1.92608E-007	0.00000E+000	-3.72000E-002	-7.12606E-004	8	..........a	0	-327.74
	5530	11.062	-5.40853E-002	-1.49278E-007	0.00000E+000	-5.30000E-002	-7.29272E-004	8	..........a	0	-327.74
	5688	11.378	-6.98865E-002	-2.17189E-007	0.00000E+000	-6.88000E-002	-7.95939E-004	8	..........a	0	-327.74
	5846	11.694	-8.56778E-002	-2.47187E-007	0.00000E+000	-8.46000E-002	-7.54272E-004	8	..........a	0	-327.74
	6004	12.01	-1.01472E-001	-3.55512E-007	0.00000E+000	-1.00400E-001	-7.62605E-004	8	..........a	0	-327.74
	6162	12.326	-1.17264E-001	-3.94258E-007	0.00000E+000	-1.16200E-001	-7.70939E-004	8	..........a	0	-327.74
	6320	12.642	-1.33056E-001	-1.30946E-007	0.00000E+000	-1.32000E-001	-7.62605E-004	8	..........a	0	-327.74
	6478	12.958	-1.48852E-001	-4.45088E-007	0.00000E+000	-1.47800E-001	-7.54272E-004	8	..........a	0	-327.74
	6636	13.274	-1.64654E-001	-3.22181E-007	0.00000E+000	-1.63600E-001	-7.54272E-004	8	..........a	0	-327.74
	6794	13.59	-1.80437E-001	-4.39671E-007	0.00000E+000	-1.79400E-001	-7.79272E-004	8	..........a	0	-327.74
	6952	13.906	-1.96218E-001	-4.88001E-007	0.00000E+000	-1.95200E-001	-6.79272E-004	8	..........a	0	-327.74
	7110	14.222	-2.12038E-001	-7.17149E-007	0.00000E+000	-2.11000E-001	-7.45939E-004	8	..........a	0	-327.74
	7268	14.538	-2.27815E-001	-8.96718E-007	0.00000E+000	-2.26800E-001	-7.87605E-004	8	..........a	0	-327.74
[...]
	9796	19.594	-4.80394E-001	-6.28030E-005	0.00000E+000	-4.79600E-001	-7.54272E-004	8	..........a	0	-327.74
	9954	19.91	-4.96178E-001	-1.04515E-004	0.00000E+000	-4.95400E-001	-7.45939E-004	8	..........a	0	-327.74
	10112	20.226	-5.11853E-001	-1.68349E-004	0.00000E+000	-5.11200E-001	-7.12606E-004	8	..........a	0	-327.74
	10270	20.542	-5.27503E-001	-2.48444E-004	0.00000E+000	-5.27000E-001	-7.29272E-004	8	..........a	0	-327.74
	10428	20.858	-5.43533E-001	-3.20594E-004	0.00000E+000	-5.42800E-001	-7.70939E-004	9	..........a	0	-327.74
	10586	21.174	-5.59367E-001	-3.55340E-004	0.00000E+000	-5.58600E-001	-7.37606E-004	9	..........a	0	-327.74
	10744	21.49	-5.75067E-001	-3.66029E-004	0.00000E+000	-5.74400E-001	-7.37606E-004	9	..........a	0	-327.74
	10902	21.806	-5.90858E-001	-3.67751E-004	0.00000E+000	-5.90200E-001	-7.45939E-004	9	..........a	0	-327.74
	11060	22.122	-6.06717E-001	-3.67103E-004	0.00000E+000	-6.06000E-001	-6.95939E-004	9	..........a	0	-327.74
	11218	22.438	-6.22496E-001	-3.70149E-004	0.00000E+000	-6.21800E-001	-7.62605E-004	9	..........a	0	-327.74
	11376	22.754	-6.38321E-001	-3.68724E-004	0.00000E+000	-6.37600E-001	-7.12606E-004	9	..........a	0	-327.74
	11534	23.07	-6.54075E-001	-3.68265E-004	0.00000E+000	-6.53400E-001	-7.54272E-004	9	..........a	0	-327.74
	11692	23.386	-6.69892E-001	-3.68026E-004	0.00000E+000	-6.69200E-001	-7.70939E-004	9	..........a	0	-327.74
	11850	23.702	-6.85687E-001	-3.69936E-004	0.00000E+000	-6.85000E-001	-6.95939E-004	9	..........a	0	-327.74
	12008	24.018	-7.01458E-001	-3.66877E-004	0.00000E+000	-7.00800E-001	-7.37606E-004	9	..........a	0	-327.74
	12166	24.334	-7.17204E-001	-3.69878E-004	0.00000E+000	-7.16600E-001	-6.62606E-004	9	..........a	0	-327.74
	12324	24.65	-7.33075E-001	-3.70387E-004	0.00000E+000	-7.32400E-001	-7.20939E-004	9	..........a	0	-327.74
	12482	24.966	-7.48883E-001	-3.70078E-004	0.00000E+000	-7.48200E-001	-7.04272E-004	9	..........a	0	-327.74
	12640	25.282	-7.64662E-001	-3.69995E-004	0.00000E+000	-7.64000E-001	-7.62605E-004	9	..........a	0	-327.74
	12798	25.598	-7.80454E-001	-3.69134E-004	0.00000E+000	-7.79800E-001	-7.62605E-004	9	..........a	0	-327.74
	12956	25.914	-7.96212E-001	-3.70061E-004	0.00000E+000	-7.95600E-001	-7.54272E-004	9	..........a	0	-327.74
	13114	26.23	-8.12037E-001	-3.68883E-004	0.00000E+000	-8.11400E-001	-7.70939E-004	9	..........a	0	-327.74
	13272	26.546	-8.27754E-001	-3.67980E-004	0.00000E+000	-8.27200E-001	-7.04272E-004	9	..........a	0	-327.74
	13430	26.862	-8.43567E-001	-3.68599E-004	0.00000E+000	-8.43000E-001	-6.95939E-004	9	..........a	0	-327.74
	13588	27.178	-8.59367E-001	-3.68206E-004	0.00000E+000	-8.58800E-001	-6.87606E-004	9	..........a	0	-327.74
	13746	27.494	-8.75133E-001	-3.69840E-004	0.00000E+000	-8.74600E-001	-7.54272E-004	9	..........a	0	-327.74
	13904	27.81	-8.90967E-001	-3.69234E-004	0.00000E+000	-8.90400E-001	-7.20939E-004	9	..........a	0	-327.74
	14062	28.126	-9.06767E-001	-3.70258E-004	0.00000E+000	-9.06200E-001	-7.54272E-004	9	..........a	0	-327.74
	14220	28.442	-9.22558E-001	-3.67989E-004	0.00000E+000	-9.22000E-001	-7.79272E-004	9	..........a	0	-327.74
	14378	28.758	-9.38379E-001	-3.70809E-004	0.00000E+000	-9.37800E-001	-7.45939E-004	9	..........a	0	-327.74
	14536	29.074	-9.54150E-001	-3.69807E-004	0.00000E+000	-9.53600E-001	-7.37606E-004	9	..........a	0	-327.74
	14694	29.39	-9.69937E-001	-3.70939E-004	0.00000E+000	-9.69400E-001	-7.70939E-004	9	..........a	0	-327.74
	14852	29.706	-9.85696E-001	-3.72427E-004	0.00000E+000	-9.85200E-001	-8.12605E-004	9	..........a	0	-327.74
	15000	30.002	-1.00049E+000	-3.74165E-004	0.00000E+000	-1.00000E+000	-7.12606E-004	9	..........a	0	-327.74

File: 1mkcl-5mmolar18btmapaq-nitrogen-rde-1200mvpers-50mvpers.DTA
EXPLAIN
TAG	LSV
TITLE	LABEL	Linear Sweep Voltammetry	Test &Identifier
DATE	LABEL	1/31/2023	Date
TIME	LABEL	15:29:45	Time
NOTES	NOTES	1	&Notes...

PSTAT	PSTAT	REF3000-21108	Potentiostat
VINIT	POTEN	5.00000E-001	F	&Initial E (V)
VFINAL	POTEN	-1.00000E+000	F	&Final E (V)
SCANRATE	QUANT	4.99999E+001	&Scan Rate (mV/s)
STEPSIZE	QUANT	1.00000E-001	St&ep Size (mV)
IMODE	SELECTOR	0	I/E Range &Mode
IRANGE	QUANT	1.00000E+002	&Max Current (mA)
AREA	QUANT	1.00000E+000	Electrode &Area (cm^2)
ELECTRODETYPE	SELECTOR	0	Electrode Type
STRIPPING	TOGGLE	F	Used for Stripping
POLARITY	TOGGLE	F	Signal Polarity
CONDIT	TWOPARAM	F	1.50000E+001	0.00000E+000	Conditionin&g	Time(s)	E(V)
DELAY	TWOPARAM	F	3.00000E+001	0.00000E+000	Init. De&lay	Time(s)	Stab.(mV/s)
EQDELAY	QUANT	0.00000E+000	Equil. &Time (s)
IRCOMP	SELECTOR	0	IRCom&p
PFCOR	QUANT	5.00000E+001	PF Corr. (ohm)
SAMPLINGMODE	SELECTOR	1	Sampling &Mode
EOC	QUANT	0	Open Circuit (V)
PSTATMODEL	IQUANT	5	Pstat Model
PSTATSECTION	LABEL	REF3000-21108	Pstat Section
PSTATSERIALNO	LABEL	21108	Pstat Serial Number
CTRLMODE	IQUANT	1	Control Mode
ELECTROMETER	IQUANT	0	RE=0 or CS=1
IESTAB	IQUANT	2	I/E Stability
CASPEED	IQUANT	4	Control Amp Speed
CONVENTION	IQUANT	1	Current Convention
ICHRANGE	IQUANT	2	Ich Range
ICHRANGEMODE	TOGGLE	F	Ich Auto Range
ICHOFFSETENABLE	TOGGLE	F	Ich Offset Enable
ICHOFFSET	QUANT	0	Ich Offset (V)
ICHFILTER	IQUANT	2	Ich Filter
VCHRANGE	IQUANT	2	Vch Range
VCHRANGEMODE	TOGGLE	T	Vch Auto Range
VCHOFFSETENABLE	TOGGLE	F	Vch Offset Enable
VCHOFFSET	QUANT	0	Vch Offset (V)
VCHFILTER	IQUANT	2	Vch Filter
ACHRANGE	IQUANT	2	Ach Range
ACHOFFSETENABLE	TOGGLE	F	Ach Offset Enable
ACHOFFSET	QUANT	0	Ach Offset (V)
ACHFILTER	IQUANT	0	Ach Filter
IERANGELOWERLIMIT	IQUANT	2	I/E Range Lower Limit
IERANGEMODE	TOGGLE	T	I/E AutoRange
IERANGE	IQUANT	11	I/E Range
POSFEEDENABLE	TOGGLE	F	Positive Feedback IR Comp
POSFEEDRESISTANCE	QUANT	0	Positive Feedback Resistance (ohm)
ACHSELECT	IQUANT	0	Ach Select
SENSECABLEID	IQUANT	14	Sense Cable ID
PWRCABLEID	IQUANT	7	Power Cable ID
DCCALDATE	LABEL	11/9/2022	DC Calibration Date
ACCALDATE	LABEL	11/9/2022	AC Calibration Date
THERMOSELECT	IQUANT	1	Thermo Select
FRAMEWORKVERSION	LABEL	7.8.2	Framework Version
INSTRUMENTVERSION	LABEL	4.40	Instrument Version
COMPLIANCEVOLTAGE	IQUANT	0	Compliance Voltage
CURVE	TABLE	15001
	Pt	T	Vf	Im	Vu	Sig	Ach	IERange	Over	Cycle	Temp
	#	s	V vs. Ref.	A	V	V	V	#	bits	#	deg C
	0	0.002	4.99754E-001	-3.92172E-005	0.00000E+000	5.00000E-001	-8.62605E-004	11	..........a	0	-327.74
	158	0.318	4.83068E-001	4.92948E-006	0.00000E+000	4.84200E-001	-1.01261E-003	8	..........a	0	-327.74
	316	0.634	4.67177E-001	3.37586E-006	0.00000E+000	4.68400E-001	-9.12605E-004	8	..........a	0	-327.74
	474	0.95	4.51368E-001	2.69424E-006	0.00000E+000	4.52600E-001	-9.54272E-004	8	..........a	0	-327.74
	632	1.266	4.35706E-001	2.26136E-006	0.00000E+000	4.36800E-001	-9.62605E-004	8	..........a	0	-327.74
	790	1.582	4.19814E-001	1.80265E-006	0.00000E+000	4.21000E-001	-1.06261E-003	8	..........a	0	-327.74
	948	1.898	4.04027E-001	1.67349E-006	0.00000E+000	4.05200E-001	-9.45939E-004	8	..........a	0	-327.74
	1106	2.214	3.88260E-001	1.32060E-006	0.00000E+000	3.89400E-001	-9.95939E-004	8	..........a	0	-327.74
	1264	2.53	3.72568E-001	1.07396E-006	0.00000E+000	3.73600E-001	-9.95939E-004	8	..........a	0	-327.74
	1422	2.846	3.56697E-001	8.08562E-007	0.00000E+000	3.57800E-001	-9.54272E-004	8	..........a	0	-327.74
	1580	3.162	3.40822E-001	4.75255E-007	0.00000E+000	3.42000E-001	-9.29272E-004	8	..........a	0	-327.74
	1738	3.478	3.25006E-001	2.25275E-007	0.00000E+000	3.26200E-001	-9.95939E-004	8	..........a	0	-327.74
	1896	3.794	3.09322E-001	2.49023E-007	0.00000E+000	3.10400E-001	-1.03761E-003	8	..........a	0	-327.74
	2054	4.11	2.93431E-001	3.06519E-007	0.00000E+000	2.94600E-001	-9.87605E-004	8	..........a	0	-327.74
	2212	4.426	2.77706E-001	1.37782E-007	0.00000E+000	2.78800E-001	-9.62605E-004	8	..........a	0	-327.74
	2370	4.742	2.61860E-001	-1.01226E-008	0.00000E+000	2.63000E-001	-1.00427E-003	8	..........a	0	-327.74
	2528	5.058	2.46164E-001	1.71113E-007	0.00000E+000	2.47200E-001	-1.00427E-003	8	..........a	0	-327.74
	2686	5.374	2.30179E-001	1.26950E-007	0.00000E+000	2.31400E-001	-8.95939E-004	8	..........a	0	-327.74
	2844	5.69	2.14379E-001	-3.92869E-008	0.00000E+000	2.15600E-001	-8.37606E-004	8	..........a	0	-327.74
	3002	6.006	1.98577E-001	-9.63657E-008	0.00000E+000	1.99800E-001	-9.62605E-004	8	..........a	0	-327.74
	3160	6.322	1.82795E-001	-6.30350E-008	0.00000E+000	1.84000E-001	-9.95939E-004	8	..........a	0	-327.74
	3318	6.638	1.67004E-001	-6.88679E-008	0.00000E+000	1.68200E-001	-9.79272E-004	8	..........a	0	-327.74
	3476	6.954	1.51217E-001	-8.26168E-008	0.00000E+000	1.52400E-001	-9.87605E-004	8	..........a	0	-327.74
	3634	7.27	1.35423E-001	-6.17851E-008	0.00000E+000	1.36600E-001	-8.95939E-004	8	..........a	0	-327.74
	3792	7.586	1.19615E-001	2.94576E-008	0.00000E+000	1.20800E-001	-9.70939E-004	8	..........a	0	-327.74
	3950	7.902	1.03852E-001	-1.26224E-008	0.00000E+000	1.05000E-001	-9.70939E-004	8	..........a	0	-327.74
	4108	8.218	8.80389E-002	-8.05336E-008	0.00000E+000	8.92000E-002	-9.37606E-004	8	..........a	0	-327.74
	4266	8.534	7.22485E-002	-6.42849E-008	0.00000E+000	7.34000E-002	-9.20939E-004	8	..........a	0	-327.74
	4424	8.85	5.64631E-002	-2.41771E-007	0.00000E+000	5.76000E-002	-9.62605E-004	8	..........a	0	-327.74
	4582	9.166	4.06818E-002	-2.80378E-008	0.00000E+000	4.18000E-002	-1.02094E-003	8	..........a	0	-327.74
	4740	9.482	2.48643E-002	1.27922E-008	0.00000E+000	2.60000E-002	-9.29272E-004	8	..........a	0	-327.74
	4898	9.798	9.06539E-003	-1.71360E-007	0.00000E+000	1.02000E-002	-9.87605E-004	8	..........a	0	-327.74
	5056	10.114	-6.72019E-003	-1.85109E-007	0.00000E+000	-5.60001E-003	-9.62605E-004	8	..........a	0	-327.74
	5214	10.43	-2.25159E-002	-1.35529E-007	0.00000E+000	-2.14000E-002	-9.95939E-004	8	..........a	0	-327.74
	5372	10.746	-3.83011E-002	-3.35513E-007	0.00000E+000	-3.72000E-002	-9.79272E-004	8	..........a	0	-327.74
	5530	11.062	-5.40924E-002	-2.09273E-007	0.00000E+000	-5.30000E-002	-1.00427E-003	8	..........a	0	-327.74
	5688	11.378	-6.98915E-002	-2.14273E-007	0.00000E+000	-6.88000E-002	-9.37606E-004	8	..........a	0	-327.74
	5846	11.694	-8.56749E-002	-2.25522E-007	0.00000E+000	-8.46000E-002	-9.87605E-004	8	..........a	0	-327.74
	6004	12.01	-1.01447E-001	-2.50937E-007	0.00000E+000	-1.00400E-001	-8.29272E-004	8	..........a	0	-327.74
	6162	12.326	-1.17267E-001	-2.77185E-007	0.00000E+000	-1.16200E-001	-9.29272E-004	8	..........a	0	-327.74
	6320	12.642	-1.33050E-001	-3.66761E-007	0.00000E+000	-1.32000E-001	-9.29272E-004	8	..........a	0	-327.74
	6478	12.958	-1.48848E-001	-2.61769E-007	0.00000E+000	-1.47800E-001	-9.04272E-004	8	..........a	0	-327.74
	6636	13.274	-1.64645E-001	-3.15931E-007	0.00000E+000	-1.63600E-001	-9.20939E-004	8	..........a	0	-327.74
	6794	13.59	-1.80420E-001	-5.35080E-007	0.00000E+000	-1.79400E-001	-8.79272E-004	8	..........a	0	-327.74
	6952	13.906	-1.96237E-001	-5.08416E-007	0.00000E+000	-1.95200E-001	-9.37606E-004	8	..........a	0	-327.74
	7110	14.222	-2.12018E-001	-3.46346E-007	0.00000E+000	-2.11000E-001	-9.29272E-004	8	..........a	0	-327.74
	7268	14.538	-2.27803E-001	-8.32140E-007	0.00000E+000	-2.26800E-001	-9.37606E-004	8	..........a	0	-327.74
[...]
	9796	19.594	-4.80378E-001	-6.88979E-005	0.00000E+000	-4.79600E-001	-8.45939E-004	8	..........a	0	-327.74
	9954	19.91	-4.96036E-001	-1.15232E-004	0.00000E+000	-4.95400E-001	-8.79272E-004	8	..........a	0	-327.74
	10112	20.226	-5.11836E-001	-1.84701E-004	0.00000E+000	-5.11200E-001	-8.79272E-004	8	..........a	0	-327.74
	10270	20.542	-5.27812E-001	-2.75778E-004	0.00000E+000	-5.27000E-001	-8.79272E-004	9	..........a	0	-327.74
	10428	20.858	-5.43408E-001	-3.54575E-004	0.00000E+000	-5.42800E-001	-8.62605E-004	9	..........a	0	-327.74
	10586	21.174	-5.59300E-001	-3.98635E-004	0.00000E+000	-5.58600E-001	-9.12605E-004	9	..........a	0	-327.74
	10744	21.49	-5.74987E-001	-4.14301E-004	0.00000E+000	-5.74400E-001	-9.29272E-004	9	..........a	0	-327.74
	10902	21.806	-5.90762E-001	-4.19529E-004	0.00000E+000	-5.90200E-001	-9.20939E-004	9	..........a	0	-327.74
	11060	22.122	-6.06704E-001	-4.23854E-004	0.00000E+000	-6.06000E-001	-8.45939E-004	9	..........a	0	-327.74
	11218	22.438	-6.22408E-001	-4.25834E-004	0.00000E+000	-6.21800E-001	-8.95939E-004	9	..........a	0	-327.74
	11376	22.754	-6.38317E-001	-4.23737E-004	0.00000E+000	-6.37600E-001	-8.95939E-004	9	..........a	0	-327.74
	11534	23.07	-6.54046E-001	-4.25178E-004	0.00000E+000	-6.53400E-001	-9.04272E-004	9	..........a	0	-327.74
	11692	23.386	-6.69742E-001	-4.25692E-004	0.00000E+000	-6.69200E-001	-9.20939E-004	9	..........a	0	-327.74
	11850	23.702	-6.85692E-001	-4.23265E-004	0.00000E+000	-6.85000E-001	-9.04272E-004	9	..........a	0	-327.74
	12008	24.018	-7.01383E-001	-4.26825E-004	0.00000E+000	-7.00800E-001	-8.87605E-004	9	..........a	0	-327.74
	12166	24.334	-7.17133E-001	-4.26482E-004	0.00000E+000	-7.16600E-001	-8.95939E-004	9	..........a	0	-327.74
	12324	24.65	-7.33050E-001	-4.20339E-004	0.00000E+000	-7.32400E-001	-9.62605E-004	9	..........a	0	-327.74
	12482	24.966	-7.48775E-001	-4.25780E-004	0.00000E+000	-7.48200E-001	-8.87605E-004	9	..........a	0	-327.74
	12640	25.282	-7.64700E-001	-4.25417E-004	0.00000E+000	-7.64000E-001	-9.29272E-004	9	..........a	0	-327.74
	12798	25.598	-7.80208E-001	-4.25057E-004	0.00000E+000	-7.79800E-001	-9.20939E-004	9	..........a	0	-327.74
	12956	25.914	-7.96158E-001	-4.24468E-004	0.00000E+000	-7.95600E-001	-9.37606E-004	9	..........a	0	-327.74
	13114	26.23	-8.12029E-001	-4.26144E-004	0.00000E+000	-8.11400E-001	-9.12605E-004	9	..........a	0	-327.74
	13272	26.546	-8.27796E-001	-4.22408E-004	0.00000E+000	-8.27200E-001	-9.37606E-004	9	..........a	0	-327.74
	13430	26.862	-8.43437E-001	-4.26411E-004	0.00000E+000	-8.43000E-001	-8.87605E-004	9	..........a	0	-327.74
	13588	27.178	-8.59379E-001	-4.26620E-004	0.00000E+000	-8.58800E-001	-9.20939E-004	9	..........a	0	-327.74
	13746	27.494	-8.75121E-001	-4.26804E-004	0.00000E+000	-8.74600E-001	-8.95939E-004	9	..........a	0	-327.74
	13904	27.81	-8.90975E-001	-4.25730E-004	0.00000E+000	-8.90400E-001	-9.04272E-004	9	..........a	0	-327.74
	14062	28.126	-9.06571E-001	-4.24414E-004	0.00000E+000	-9.06200E-001	-8.45939E-004	9	..........a	0	-327.74
	14220	28.442	-9.22500E-001	-4.25793E-004	0.00000E+000	-9.22000E-001	-9.12605E-004	9	..........a	0	-327.74
	14378	28.758	-9.38354E-001	-4.24259E-004	0.00000E+000	-9.37800E-001	-9.37606E-004	9	..........a	0	-327.74
	14536	29.074	-9.54033E-001	-4.28099E-004	0.00000E+000	-9.53600E-001	-8.79272E-004	9	..........a	0	-327.74
	14694	29.39	-9.69825E-001	-4.27560E-004	0.00000E+000	-9.69400E-001	-8.54272E-004	9	..........a	0	-327.74
	14852	29.706	-9.85737E-001	-4.27502E-004	0.00000E+000	-9.85200E-001	-8.79272E-004	9	..........a	0	-327.74
	15000	30.002	-1.00040E+000	-4.26332E-004	0.00000E+000	-1.00000E+000	-9.12605E-004	9	..........a	0	-327.74