Folder: 2024-09-QuCO2-NCE/data/02-SI/Figures_S9_S11_RDE/18btmapaq-rde (part 8)

File: 1mkcl-18btmapaq-nitrogen-900mvpers.DTA
EXPLAIN
TAG	CV
TITLE	LABEL	Cyclic Voltammetry	Test &Identifier
DATE	LABEL	1/31/2023	Date
TIME	LABEL	15:22:20	Time
NOTES	NOTES	1	&Notes...

PSTAT	PSTAT	REF3000-21108	Potentiostat
VINIT	POTEN	5.00000E-001	F	Initial &E (V)
VLIMIT1	POTEN	-1.00000E+000	F	Scan Limit &1 (V)
VLIMIT2	POTEN	5.00000E-001	F	Scan Limit &2 (V)
VFINAL	POTEN	5.00000E-001	F	Final &E (V)
SCANRATE	QUANT	8.95521E+002	&Scan Rate (mV/s)
STEPSIZE	QUANT	1.00000E+000	St&ep Size (mV)
CYCLES	IQUANT	1	C&ycles (#)
IMODE	SELECTOR	1	I/E Range &Mode
IRANGE	QUANT	1.00000E+001	&Max Current (mA)
AREA	QUANT	1.00000E+000	Electrode &Area (cm^2)
ELECTRODETYPE	SELECTOR	0	Electrode Type
STRIPPING	TOGGLE	F	Used for Stripping
POLARITY	TOGGLE	F	Signal Polarity
CONDIT	TWOPARAM	F	1.50000E+001	0.00000E+000	Conditionin&g	Time(s)	E(V)
DELAY	TWOPARAM	F	5.00000E+000	0.00000E+000	Init. De&lay	Time(s)	Stab.(mV/s)
EQDELAY	QUANT	0.00000E+000	Equil. &Time (s)
IRCOMP	SELECTOR	0	IRCom&p
PFCOR	QUANT	5.00000E+001	PF Corr. (ohm)
SAMPLINGMODE	SELECTOR	1	Sampling &Mode
EOC	QUANT	0	Open Circuit (V)
PSTATMODEL	IQUANT	5	Pstat Model
PSTATSECTION	LABEL	REF3000-21108	Pstat Section
PSTATSERIALNO	LABEL	21108	Pstat Serial Number
CTRLMODE	IQUANT	1	Control Mode
ELECTROMETER	IQUANT	0	RE=0 or CS=1
IESTAB	IQUANT	2	I/E Stability
CASPEED	IQUANT	4	Control Amp Speed
CONVENTION	IQUANT	1	Current Convention
ICHRANGE	IQUANT	2	Ich Range
ICHRANGEMODE	TOGGLE	F	Ich Auto Range
ICHOFFSETENABLE	TOGGLE	F	Ich Offset Enable
ICHOFFSET	QUANT	0	Ich Offset (V)
ICHFILTER	IQUANT	1	Ich Filter
VCHRANGE	IQUANT	2	Vch Range
VCHRANGEMODE	TOGGLE	F	Vch Auto Range
VCHOFFSETENABLE	TOGGLE	F	Vch Offset Enable
VCHOFFSET	QUANT	0	Vch Offset (V)
VCHFILTER	IQUANT	1	Vch Filter
ACHRANGE	IQUANT	2	Ach Range
ACHOFFSETENABLE	TOGGLE	F	Ach Offset Enable
ACHOFFSET	QUANT	0	Ach Offset (V)
ACHFILTER	IQUANT	0	Ach Filter
IERANGELOWERLIMIT	IQUANT	2	I/E Range Lower Limit
IERANGEMODE	TOGGLE	F	I/E AutoRange
IERANGE	IQUANT	10	I/E Range
POSFEEDENABLE	TOGGLE	F	Positive Feedback IR Comp
POSFEEDRESISTANCE	QUANT	0	Positive Feedback Resistance (ohm)
ACHSELECT	IQUANT	0	Ach Select
SENSECABLEID	IQUANT	14	Sense Cable ID
PWRCABLEID	IQUANT	7	Power Cable ID
DCCALDATE	LABEL	11/9/2022	DC Calibration Date
ACCALDATE	LABEL	11/9/2022	AC Calibration Date
THERMOSELECT	IQUANT	1	Thermo Select
FRAMEWORKVERSION	LABEL	7.8.2	Framework Version
INSTRUMENTVERSION	LABEL	4.40	Instrument Version
COMPLIANCEVOLTAGE	IQUANT	0	Compliance Voltage
CURVE1	TABLE
	Pt	T	Vf	Im	Vu	Sig	Ach	IERange	Over	Temp
	#	s	V vs. Ref.	A	V	V	V	#	bits	deg C
	0	0.001117	4.98553E-001	1.08457E-005	0.00000E+000	5.00000E-001	-8.72129E-004	10	..........a	-327.74
	32	0.03685	4.66483E-001	-7.20103E-006	0.00000E+000	4.67850E-001	-7.43558E-004	10	..........a	-327.74
	64	0.072583	4.34353E-001	-1.24454E-005	0.00000E+000	4.35700E-001	-7.72129E-004	10	..........a	-327.74
	96	0.108317	4.02053E-001	-1.52218E-005	0.00000E+000	4.03500E-001	-8.29272E-004	10	..........a	-327.74
	128	0.14405	3.69929E-001	-1.59930E-005	0.00000E+000	3.71350E-001	-8.57844E-004	10	..........a	-327.74
	160	0.179783	3.37768E-001	-2.00034E-005	0.00000E+000	3.39200E-001	-7.29272E-004	10	..........a	-327.74
	192	0.215517	3.05668E-001	-1.91550E-005	0.00000E+000	3.07050E-001	-8.29272E-004	10	..........a	-327.74
	224	0.25125	2.73529E-001	-1.93864E-005	0.00000E+000	2.74900E-001	-7.72129E-004	10	..........a	-327.74
	256	0.286983	2.41329E-001	-2.10831E-005	0.00000E+000	2.42700E-001	-9.00701E-004	10	..........a	-327.74
	288	0.322717	2.09229E-001	-2.15458E-005	0.00000E+000	2.10550E-001	-8.57844E-004	10	..........a	-327.74
	320	0.35845	1.77083E-001	-2.06204E-005	0.00000E+000	1.78400E-001	-8.14986E-004	10	..........a	-327.74
	352	0.394183	1.44976E-001	-2.27027E-005	0.00000E+000	1.46250E-001	-7.43558E-004	10	..........a	-327.74
	384	0.429917	1.12845E-001	-2.20086E-005	0.00000E+000	1.14100E-001	-8.57844E-004	10	..........a	-327.74
	416	0.46565	8.06141E-002	-2.22399E-005	0.00000E+000	8.19000E-002	-8.43558E-004	10	..........a	-327.74
	448	0.501383	4.85064E-002	-2.23942E-005	0.00000E+000	4.97500E-002	-7.86415E-004	10	..........a	-327.74
	480	0.537117	1.63525E-002	-2.33197E-005	0.00000E+000	1.76000E-002	-8.43558E-004	10	..........a	-327.74
	512	0.57285	-1.57705E-002	-2.28569E-005	0.00000E+000	-1.45500E-002	-8.29272E-004	10	..........a	-327.74
	544	0.608583	-4.79398E-002	-2.20086E-005	0.00000E+000	-4.67000E-002	-8.00701E-004	10	..........a	-327.74
	576	0.644317	-8.01628E-002	-2.35510E-005	0.00000E+000	-7.89000E-002	-8.00701E-004	10	..........a	-327.74
	608	0.68005	-1.12255E-001	-2.33197E-005	0.00000E+000	-1.11050E-001	-8.14986E-004	10	..........a	-327.74
	640	0.715783	-1.44332E-001	-2.27798E-005	0.00000E+000	-1.43200E-001	-8.29272E-004	10	..........a	-327.74
	672	0.751517	-1.76517E-001	-2.38595E-005	0.00000E+000	-1.75350E-001	-8.14986E-004	10	..........a	-327.74
	704	0.78725	-2.08647E-001	-2.53248E-005	0.00000E+000	-2.07500E-001	-8.72129E-004	10	..........a	-327.74
	736	0.822983	-2.40878E-001	-2.65588E-005	0.00000E+000	-2.39700E-001	-8.00701E-004	10	..........a	-327.74
	768	0.858717	-2.72932E-001	-2.82555E-005	0.00000E+000	-2.71850E-001	-8.57844E-004	10	..........a	-327.74
	800	0.89445	-3.05132E-001	-2.97980E-005	0.00000E+000	-3.04000E-001	-8.14986E-004	10	..........a	-327.74
	832	0.930183	-3.37217E-001	-3.42711E-005	0.00000E+000	-3.36150E-001	-8.29272E-004	10	..........a	-327.74
	864	0.96592	-3.69517E-001	-4.01324E-005	0.00000E+000	-3.68300E-001	-8.57844E-004	10	..........a	-327.74
	896	1.00165	-4.01601E-001	-4.90786E-005	0.00000E+000	-4.00500E-001	-7.29272E-004	10	..........a	-327.74
	928	1.03738	-4.33786E-001	-6.75109E-005	0.00000E+000	-4.32650E-001	-8.72129E-004	10	..........a	-327.74
	960	1.07312	-4.65809E-001	-1.26433E-004	0.00000E+000	-4.64800E-001	-8.43558E-004	10	..........a	-327.74
	992	1.10885	-4.98055E-001	-2.85614E-004	0.00000E+000	-4.96950E-001	-8.43558E-004	10	..........a	-327.74
	1024	1.14458	-5.30109E-001	-5.80993E-004	0.00000E+000	-5.29100E-001	-8.00701E-004	10	..........a	-327.74
	1056	1.18032	-5.62347E-001	-8.12207E-004	0.00000E+000	-5.61300E-001	-8.00701E-004	10	..........a	-327.74
	1088	1.21605	-5.94486E-001	-7.38940E-004	0.00000E+000	-5.93450E-001	-8.00701E-004	10	..........a	-327.74
	1120	1.25178	-6.26663E-001	-5.80993E-004	0.00000E+000	-6.25600E-001	-9.00701E-004	10	..........a	-327.74
	1152	1.28752	-6.58694E-001	-4.93613E-004	0.00000E+000	-6.57750E-001	-8.86415E-004	10	..........a	-327.74
	1184	1.32325	-6.90855E-001	-4.36080E-004	0.00000E+000	-6.89900E-001	-7.57844E-004	10	..........a	-327.74
	1216	1.35898	-7.23094E-001	-3.96593E-004	0.00000E+000	-7.22100E-001	-8.29272E-004	10	..........a	-327.74
	1248	1.39472	-7.55171E-001	-3.64356E-004	0.00000E+000	-7.54250E-001	-8.14986E-004	10	..........a	-327.74
	1280	1.43045	-7.87324E-001	-3.38366E-004	0.00000E+000	-7.86400E-001	-7.86415E-004	10	..........a	-327.74
	1312	1.46618	-8.19394E-001	-3.18468E-004	0.00000E+000	-8.18550E-001	-7.86415E-004	10	..........a	-327.74
	1344	1.50192	-8.51517E-001	-3.01578E-004	0.00000E+000	-8.50700E-001	-8.00701E-004	10	..........a	-327.74
	1376	1.53765	-8.83793E-001	-2.89161E-004	0.00000E+000	-8.82900E-001	-8.57844E-004	10	..........a	-327.74
	1408	1.57338	-9.15871E-001	-2.76513E-004	0.00000E+000	-9.15050E-001	-9.00701E-004	10	..........a	-327.74
	1440	1.60912	-9.47978E-001	-2.65176E-004	0.00000E+000	-9.47200E-001	-8.43558E-004	10	..........a	-327.74
[...]
	1984	2.21658	-5.06040E-001	5.37285E-004	0.00000E+000	-5.05000E-001	-8.86415E-004	10	..........a	-327.74
	2016	2.25232	-4.73917E-001	5.59650E-004	0.00000E+000	-4.72850E-001	-8.86415E-004	10	..........a	-327.74
	2048	2.28805	-4.41786E-001	4.22758E-004	0.00000E+000	-4.40700E-001	-8.29272E-004	10	..........a	-327.74
	2080	2.32378	-4.09586E-001	3.21110E-004	0.00000E+000	-4.08500E-001	-8.43558E-004	10	..........a	-327.74
	2112	2.35952	-3.77478E-001	2.58178E-004	0.00000E+000	-3.76350E-001	-8.29272E-004	10	..........a	-327.74
	2144	2.39525	-3.45301E-001	2.17303E-004	0.00000E+000	-3.44200E-001	-7.86415E-004	10	..........a	-327.74
	2176	2.43098	-3.13171E-001	1.89230E-004	0.00000E+000	-3.12050E-001	-8.86415E-004	10	..........a	-327.74
	2208	2.46672	-2.81063E-001	1.68253E-004	0.00000E+000	-2.79900E-001	-8.57844E-004	10	..........a	-327.74
	2240	2.50245	-2.48855E-001	1.52057E-004	0.00000E+000	-2.47700E-001	-7.86415E-004	10	..........a	-327.74
	2272	2.53818	-2.16640E-001	1.39255E-004	0.00000E+000	-2.15550E-001	-8.72129E-004	10	..........a	-327.74
	2304	2.57392	-1.84517E-001	1.26607E-004	0.00000E+000	-1.83400E-001	-8.86415E-004	10	..........a	-327.74
	2336	2.60965	-1.52401E-001	1.17506E-004	0.00000E+000	-1.51250E-001	-9.00701E-004	10	..........a	-327.74
	2368	2.64538	-1.20255E-001	1.08869E-004	0.00000E+000	-1.19100E-001	-9.57844E-004	10	..........a	-327.74
	2400	2.68112	-8.81321E-002	1.02236E-004	0.00000E+000	-8.69000E-002	-8.14986E-004	10	..........a	-327.74
	2432	2.71685	-5.59398E-002	9.66831E-005	0.00000E+000	-5.47500E-002	-8.57844E-004	10	..........a	-327.74
	2464	2.75258	-2.38859E-002	8.96650E-005	0.00000E+000	-2.26000E-002	-8.14986E-004	10	..........a	-327.74
	2496	2.78832	8.30639E-003	8.61173E-005	0.00000E+000	9.55001E-003	-9.00701E-004	10	..........a	-327.74
	2528	2.82405	4.04833E-002	8.12586E-005	0.00000E+000	4.17000E-002	-8.57844E-004	10	..........a	-327.74
	2560	2.85978	7.25910E-002	7.78652E-005	0.00000E+000	7.39000E-002	-8.86415E-004	10	..........a	-327.74
	2592	2.89552	1.04822E-001	7.33921E-005	0.00000E+000	1.06050E-001	-9.29272E-004	10	..........a	-327.74
	2624	2.93125	1.36945E-001	6.88419E-005	0.00000E+000	1.38200E-001	-8.57844E-004	10	..........a	-327.74
	2656	2.96698	1.69091E-001	6.29805E-005	0.00000E+000	1.70350E-001	-8.57844E-004	10	..........a	-327.74
	2688	3.00272	2.01214E-001	6.10525E-005	0.00000E+000	2.02500E-001	-9.14986E-004	10	..........a	-327.74
	2720	3.03845	2.33329E-001	5.65794E-005	0.00000E+000	2.34700E-001	-8.43558E-004	10	..........a	-327.74
	2752	3.07418	2.65491E-001	5.53454E-005	0.00000E+000	2.66850E-001	-8.72129E-004	10	..........a	-327.74
	2784	3.10992	2.97583E-001	5.31860E-005	0.00000E+000	2.99000E-001	-9.29272E-004	10	..........a	-327.74
	2816	3.14565	3.29768E-001	5.01011E-005	0.00000E+000	3.31150E-001	-8.86415E-004	10	..........a	-327.74
	2848	3.18138	3.61899E-001	4.84815E-005	0.00000E+000	3.63300E-001	-8.29272E-004	10	..........a	-327.74
	2880	3.21712	3.94053E-001	4.66306E-005	0.00000E+000	3.95500E-001	-8.72129E-004	10	..........a	-327.74
	2912	3.25285	4.26176E-001	4.50110E-005	0.00000E+000	4.27650E-001	-8.57844E-004	10	..........a	-327.74
	2944	3.28858	4.58383E-001	4.35456E-005	0.00000E+000	4.59800E-001	-9.14986E-004	10	..........a	-327.74
	2976	3.32432	4.90537E-001	4.40855E-005	0.00000E+000	4.91950E-001	-8.86415E-004	10	..........a	-327.74
	2984	3.33325	4.98591E-001	4.27744E-005	0.00000E+000	5.00000E-001	-8.86415E-004	10	..........a	-327.74
CURVE2	TABLE
	Pt	T	Vf	Im	Vu	Sig	Ach	IERange	Over	Temp
	#	s	V vs. Ref.	A	V	V	V	#	bits	deg C
	2985	3.33437	4.98591E-001	4.07692E-005	0.00000E+000	5.00000E-001	-7.72129E-004	10	..........a	-327.74

File: 1mkcl-18btmapaq-nitrogen-1000mvpers.DTA
EXPLAIN
TAG	CV
TITLE	LABEL	Cyclic Voltammetry	Test &Identifier
DATE	LABEL	1/31/2023	Date
TIME	LABEL	15:22:34	Time
NOTES	NOTES	1	&Notes...

PSTAT	PSTAT	REF3000-21108	Potentiostat
VINIT	POTEN	5.00000E-001	F	Initial &E (V)
VLIMIT1	POTEN	-1.00000E+000	F	Scan Limit &1 (V)
VLIMIT2	POTEN	5.00000E-001	F	Scan Limit &2 (V)
VFINAL	POTEN	5.00000E-001	F	Final &E (V)
SCANRATE	QUANT	9.99998E+002	&Scan Rate (mV/s)
STEPSIZE	QUANT	1.00000E+000	St&ep Size (mV)
CYCLES	IQUANT	1	C&ycles (#)
IMODE	SELECTOR	1	I/E Range &Mode
IRANGE	QUANT	1.00000E+001	&Max Current (mA)
AREA	QUANT	1.00000E+000	Electrode &Area (cm^2)
ELECTRODETYPE	SELECTOR	0	Electrode Type
STRIPPING	TOGGLE	F	Used for Stripping
POLARITY	TOGGLE	F	Signal Polarity
CONDIT	TWOPARAM	F	1.50000E+001	0.00000E+000	Conditionin&g	Time(s)	E(V)
DELAY	TWOPARAM	F	5.00000E+000	0.00000E+000	Init. De&lay	Time(s)	Stab.(mV/s)
EQDELAY	QUANT	0.00000E+000	Equil. &Time (s)
IRCOMP	SELECTOR	0	IRCom&p
PFCOR	QUANT	5.00000E+001	PF Corr. (ohm)
SAMPLINGMODE	SELECTOR	1	Sampling &Mode
EOC	QUANT	0	Open Circuit (V)
PSTATMODEL	IQUANT	5	Pstat Model
PSTATSECTION	LABEL	REF3000-21108	Pstat Section
PSTATSERIALNO	LABEL	21108	Pstat Serial Number
CTRLMODE	IQUANT	1	Control Mode
ELECTROMETER	IQUANT	0	RE=0 or CS=1
IESTAB	IQUANT	2	I/E Stability
CASPEED	IQUANT	4	Control Amp Speed
CONVENTION	IQUANT	1	Current Convention
ICHRANGE	IQUANT	2	Ich Range
ICHRANGEMODE	TOGGLE	F	Ich Auto Range
ICHOFFSETENABLE	TOGGLE	F	Ich Offset Enable
ICHOFFSET	QUANT	0	Ich Offset (V)
ICHFILTER	IQUANT	1	Ich Filter
VCHRANGE	IQUANT	2	Vch Range
VCHRANGEMODE	TOGGLE	F	Vch Auto Range
VCHOFFSETENABLE	TOGGLE	F	Vch Offset Enable
VCHOFFSET	QUANT	0	Vch Offset (V)
VCHFILTER	IQUANT	1	Vch Filter
ACHRANGE	IQUANT	2	Ach Range
ACHOFFSETENABLE	TOGGLE	F	Ach Offset Enable
ACHOFFSET	QUANT	0	Ach Offset (V)
ACHFILTER	IQUANT	0	Ach Filter
IERANGELOWERLIMIT	IQUANT	2	I/E Range Lower Limit
IERANGEMODE	TOGGLE	F	I/E AutoRange
IERANGE	IQUANT	10	I/E Range
POSFEEDENABLE	TOGGLE	F	Positive Feedback IR Comp
POSFEEDRESISTANCE	QUANT	0	Positive Feedback Resistance (ohm)
ACHSELECT	IQUANT	0	Ach Select
SENSECABLEID	IQUANT	14	Sense Cable ID
PWRCABLEID	IQUANT	7	Power Cable ID
DCCALDATE	LABEL	11/9/2022	DC Calibration Date
ACCALDATE	LABEL	11/9/2022	AC Calibration Date
THERMOSELECT	IQUANT	1	Thermo Select
FRAMEWORKVERSION	LABEL	7.8.2	Framework Version
INSTRUMENTVERSION	LABEL	4.40	Instrument Version
COMPLIANCEVOLTAGE	IQUANT	0	Compliance Voltage
CURVE1	TABLE
	Pt	T	Vf	Im	Vu	Sig	Ach	IERange	Over	Temp
	#	s	V vs. Ref.	A	V	V	V	#	bits	deg C
	0	0.001	4.98608E-001	1.08264E-005	0.00000E+000	5.00000E-001	-8.62605E-004	10	..........a	-327.74
	31	0.032	4.67549E-001	-6.71902E-006	0.00000E+000	4.69000E-001	-8.95939E-004	10	..........a	-327.74
	62	0.063	4.36574E-001	-1.13978E-005	0.00000E+000	4.38000E-001	-8.79272E-004	10	..........a	-327.74
	93	0.094	4.05624E-001	-1.39043E-005	0.00000E+000	4.07000E-001	-8.29272E-004	10	..........a	-327.74
	124	0.125	3.74624E-001	-1.64943E-005	0.00000E+000	3.76000E-001	-8.62605E-004	10	..........a	-327.74
	155	0.156	3.43616E-001	-1.86666E-005	0.00000E+000	3.45000E-001	-8.62605E-004	10	..........a	-327.74
	186	0.187	3.12608E-001	-1.79146E-005	0.00000E+000	3.14000E-001	-8.29272E-004	10	..........a	-327.74
	217	0.218	2.81599E-001	-1.92514E-005	0.00000E+000	2.83000E-001	-7.62605E-004	10	..........a	-327.74
	248	0.249	2.50683E-001	-1.96692E-005	0.00000E+000	2.52000E-001	-8.62605E-004	10	..........a	-327.74
	279	0.28	2.19666E-001	-1.86666E-005	0.00000E+000	2.21000E-001	-7.62605E-004	10	..........a	-327.74
	310	0.311	1.88691E-001	-2.10895E-005	0.00000E+000	1.90000E-001	-7.45939E-004	10	..........a	-327.74
	341	0.342	1.57758E-001	-2.03376E-005	0.00000E+000	1.59000E-001	-7.95939E-004	10	..........a	-327.74
	372	0.373	1.26758E-001	-1.93350E-005	0.00000E+000	1.28000E-001	-7.95939E-004	10	..........a	-327.74
	403	0.404	9.57577E-002	-2.07553E-005	0.00000E+000	9.70000E-002	-7.79272E-004	10	..........a	-327.74
	434	0.435	6.47493E-002	-2.09224E-005	0.00000E+000	6.60000E-002	-8.29272E-004	10	..........a	-327.74
	465	0.466	3.37660E-002	-1.90008E-005	0.00000E+000	3.50000E-002	-8.12605E-004	10	..........a	-327.74
	496	0.497	2.73267E-003	-2.05047E-005	0.00000E+000	4.00001E-003	-7.95939E-004	10	..........a	-327.74
	527	0.528	-2.82507E-002	-2.05047E-005	0.00000E+000	-2.70000E-002	-8.45939E-004	10	..........a	-327.74
	558	0.559	-5.93257E-002	-2.25934E-005	0.00000E+000	-5.80000E-002	-8.29272E-004	10	..........a	-327.74
	589	0.59	-9.02423E-002	-2.05047E-005	0.00000E+000	-8.90000E-002	-8.29272E-004	10	..........a	-327.74
	620	0.621	-1.21201E-001	-2.20086E-005	0.00000E+000	-1.20000E-001	-8.62605E-004	10	..........a	-327.74
	651	0.652	-1.52267E-001	-2.26770E-005	0.00000E+000	-1.51000E-001	-8.12605E-004	10	..........a	-327.74
	682	0.683	-1.83167E-001	-2.24263E-005	0.00000E+000	-1.82000E-001	-7.62605E-004	10	..........a	-327.74
	713	0.714	-2.14117E-001	-2.40973E-005	0.00000E+000	-2.13000E-001	-7.95939E-004	10	..........a	-327.74
	744	0.745	-2.45159E-001	-2.50164E-005	0.00000E+000	-2.44000E-001	-8.45939E-004	10	..........a	-327.74
	775	0.776	-2.76109E-001	-2.83583E-005	0.00000E+000	-2.75000E-001	-7.95939E-004	10	..........a	-327.74
	806	0.807	-3.07126E-001	-2.97787E-005	0.00000E+000	-3.06000E-001	-7.79272E-004	10	..........a	-327.74
	837	0.838	-3.38092E-001	-3.37055E-005	0.00000E+000	-3.37000E-001	-8.29272E-004	10	..........a	-327.74
	868	0.869	-3.69142E-001	-3.97211E-005	0.00000E+000	-3.68000E-001	-9.12605E-004	10	..........a	-327.74
	899	0.9	-4.00092E-001	-4.68228E-005	0.00000E+000	-3.99000E-001	-8.79272E-004	10	..........a	-327.74
	930	0.931	-4.31051E-001	-6.31149E-005	0.00000E+000	-4.30000E-001	-8.45939E-004	10	..........a	-327.74
	961	0.962	-4.62059E-001	-1.16002E-004	0.00000E+000	-4.61000E-001	-8.29272E-004	10	..........a	-327.74
	992	0.993	-4.93076E-001	-2.59038E-004	0.00000E+000	-4.92000E-001	-8.29272E-004	10	..........a	-327.74
	1023	1.024	-5.24117E-001	-5.39013E-004	0.00000E+000	-5.23000E-001	-7.62605E-004	10	..........a	-327.74
	1054	1.055	-5.55042E-001	-8.18737E-004	0.00000E+000	-5.54000E-001	-8.45939E-004	10	..........a	-327.74
	1085	1.086	-5.86017E-001	-8.37702E-004	0.00000E+000	-5.85000E-001	-8.29272E-004	10	..........a	-327.74
	1116	1.117	-6.16992E-001	-6.65173E-004	0.00000E+000	-6.16000E-001	-8.62605E-004	10	..........a	-327.74
	1147	1.148	-6.47992E-001	-5.53216E-004	0.00000E+000	-6.47000E-001	-8.45939E-004	10	..........a	-327.74
	1178	1.179	-6.78934E-001	-4.84873E-004	0.00000E+000	-6.78000E-001	-8.29272E-004	10	..........a	-327.74
	1209	1.21	-7.09984E-001	-4.37082E-004	0.00000E+000	-7.09000E-001	-8.62605E-004	10	..........a	-327.74
	1240	1.241	-7.40984E-001	-4.00906E-004	0.00000E+000	-7.40000E-001	-9.12605E-004	10	..........a	-327.74
	1271	1.272	-7.71909E-001	-3.70995E-004	0.00000E+000	-7.71000E-001	-8.12605E-004	10	..........a	-327.74
	1302	1.303	-8.02942E-001	-3.48102E-004	0.00000E+000	-8.02000E-001	-8.29272E-004	10	..........a	-327.74
	1333	1.334	-8.33859E-001	-3.29053E-004	0.00000E+000	-8.33000E-001	-8.95939E-004	10	..........a	-327.74
	1364	1.365	-8.64884E-001	-3.12176E-004	0.00000E+000	-8.64000E-001	-8.45939E-004	10	..........a	-327.74
	1395	1.396	-8.95892E-001	-3.00061E-004	0.00000E+000	-8.95000E-001	-7.95939E-004	10	..........a	-327.74
	1426	1.427	-9.26834E-001	-2.86610E-004	0.00000E+000	-9.26000E-001	-7.29272E-004	10	..........a	-327.74
[...]
	1984	1.985	-5.17051E-001	4.61827E-004	0.00000E+000	-5.16000E-001	-8.45939E-004	10	..........a	-327.74
	2015	2.016	-4.86076E-001	6.29845E-004	0.00000E+000	-4.85000E-001	-8.62605E-004	10	..........a	-327.74
	2046	2.047	-4.55059E-001	5.13627E-004	0.00000E+000	-4.54000E-001	-8.95939E-004	10	..........a	-327.74
	2077	2.078	-4.24051E-001	3.87635E-004	0.00000E+000	-4.23000E-001	-8.45939E-004	10	..........a	-327.74
	2108	2.109	-3.93109E-001	3.06425E-004	0.00000E+000	-3.92000E-001	-8.45939E-004	10	..........a	-327.74
	2139	2.14	-3.62034E-001	2.53955E-004	0.00000E+000	-3.61000E-001	-8.79272E-004	10	..........a	-327.74
	2170	2.171	-3.31034E-001	2.20536E-004	0.00000E+000	-3.30000E-001	-8.45939E-004	10	..........a	-327.74
	2201	2.202	-3.00142E-001	1.93716E-004	0.00000E+000	-2.99000E-001	-9.12605E-004	10	..........a	-327.74
	2232	2.233	-2.69142E-001	1.75335E-004	0.00000E+000	-2.68000E-001	-8.29272E-004	10	..........a	-327.74
	2263	2.264	-2.38159E-001	1.58709E-004	0.00000E+000	-2.37000E-001	-7.95939E-004	10	..........a	-327.74
	2294	2.295	-2.07084E-001	1.46427E-004	0.00000E+000	-2.06000E-001	-8.12605E-004	10	..........a	-327.74
	2325	2.326	-1.76209E-001	1.35649E-004	0.00000E+000	-1.75000E-001	-8.79272E-004	10	..........a	-327.74
	2356	2.357	-1.45151E-001	1.25958E-004	0.00000E+000	-1.44000E-001	-8.12605E-004	10	..........a	-327.74
	2387	2.388	-1.14167E-001	1.17352E-004	0.00000E+000	-1.13000E-001	-8.29272E-004	10	..........a	-327.74
	2418	2.419	-8.32007E-002	1.09415E-004	0.00000E+000	-8.20000E-002	-8.62605E-004	10	..........a	-327.74
	2449	2.45	-5.21923E-002	1.03566E-004	0.00000E+000	-5.10000E-002	-8.95939E-004	10	..........a	-327.74
	2480	2.481	-2.12840E-002	9.80520E-005	0.00000E+000	-2.00000E-002	-8.45939E-004	10	..........a	-327.74
	2511	2.512	9.77434E-003	9.37075E-005	0.00000E+000	1.10000E-002	-8.29272E-004	10	..........a	-327.74
	2542	2.543	4.07660E-002	8.86945E-005	0.00000E+000	4.20000E-002	-8.95939E-004	10	..........a	-327.74
	2573	2.574	7.17160E-002	8.58538E-005	0.00000E+000	7.30000E-002	-8.62605E-004	10	..........a	-327.74
	2604	2.605	1.02674E-001	8.03396E-005	0.00000E+000	1.04000E-001	-8.79272E-004	10	..........a	-327.74
	2635	2.636	1.33733E-001	7.69140E-005	0.00000E+000	1.35000E-001	-8.95939E-004	10	..........a	-327.74
	2666	2.667	1.64724E-001	7.29036E-005	0.00000E+000	1.66000E-001	-8.29272E-004	10	..........a	-327.74
	2697	2.698	1.95683E-001	6.79742E-005	0.00000E+000	1.97000E-001	-8.12605E-004	10	..........a	-327.74
	2728	2.729	2.26708E-001	6.57184E-005	0.00000E+000	2.28000E-001	-8.29272E-004	10	..........a	-327.74
	2759	2.76	2.57691E-001	6.21258E-005	0.00000E+000	2.59000E-001	-8.95939E-004	10	..........a	-327.74
	2790	2.791	2.88624E-001	5.91180E-005	0.00000E+000	2.90000E-001	-8.79272E-004	10	..........a	-327.74
	2821	2.822	3.19691E-001	5.71128E-005	0.00000E+000	3.21000E-001	-8.29272E-004	10	..........a	-327.74
	2852	2.853	3.50649E-001	5.55254E-005	0.00000E+000	3.52000E-001	-8.62605E-004	10	..........a	-327.74
	2883	2.884	3.81624E-001	5.41050E-005	0.00000E+000	3.83000E-001	-8.29272E-004	10	..........a	-327.74
	2914	2.915	4.12541E-001	5.21834E-005	0.00000E+000	4.14000E-001	-8.29272E-004	10	..........a	-327.74
	2945	2.946	4.43566E-001	5.15150E-005	0.00000E+000	4.45000E-001	-8.62605E-004	10	..........a	-327.74
	2976	2.977	4.74641E-001	5.06795E-005	0.00000E+000	4.76000E-001	-7.79272E-004	10	..........a	-327.74
	3000	3.001	4.98549E-001	4.86743E-005	0.00000E+000	5.00000E-001	-9.12605E-004	10	..........a	-327.74
CURVE2	TABLE
	Pt	T	Vf	Im	Vu	Sig	Ach	IERange	Over	Temp
	#	s	V vs. Ref.	A	V	V	V	#	bits	deg C
	3001	3.002	4.98624E-001	4.70033E-005	0.00000E+000	5.00000E-001	-8.29272E-004	10	..........a	-327.74