Folder: 2024-09-QuCO2-NCE/data/02-SI/Figures_S9_S11_RDE/18btmapaq-rde (part 3)

File: 1mkcl-5mmolar18btmapaq-nitrogen-rde-2500mvpers-50mvpers.DTA
EXPLAIN
TAG	LSV
TITLE	LABEL	Linear Sweep Voltammetry	Test &Identifier
DATE	LABEL	1/31/2023	Date
TIME	LABEL	15:31:45	Time
NOTES	NOTES	1	&Notes...

PSTAT	PSTAT	REF3000-21108	Potentiostat
VINIT	POTEN	5.00000E-001	F	&Initial E (V)
VFINAL	POTEN	-1.00000E+000	F	&Final E (V)
SCANRATE	QUANT	4.99999E+001	&Scan Rate (mV/s)
STEPSIZE	QUANT	1.00000E-001	St&ep Size (mV)
IMODE	SELECTOR	0	I/E Range &Mode
IRANGE	QUANT	1.00000E+002	&Max Current (mA)
AREA	QUANT	1.00000E+000	Electrode &Area (cm^2)
ELECTRODETYPE	SELECTOR	0	Electrode Type
STRIPPING	TOGGLE	F	Used for Stripping
POLARITY	TOGGLE	F	Signal Polarity
CONDIT	TWOPARAM	F	1.50000E+001	0.00000E+000	Conditionin&g	Time(s)	E(V)
DELAY	TWOPARAM	F	3.00000E+001	0.00000E+000	Init. De&lay	Time(s)	Stab.(mV/s)
EQDELAY	QUANT	0.00000E+000	Equil. &Time (s)
IRCOMP	SELECTOR	0	IRCom&p
PFCOR	QUANT	5.00000E+001	PF Corr. (ohm)
SAMPLINGMODE	SELECTOR	1	Sampling &Mode
EOC	QUANT	0	Open Circuit (V)
PSTATMODEL	IQUANT	5	Pstat Model
PSTATSECTION	LABEL	REF3000-21108	Pstat Section
PSTATSERIALNO	LABEL	21108	Pstat Serial Number
CTRLMODE	IQUANT	1	Control Mode
ELECTROMETER	IQUANT	0	RE=0 or CS=1
IESTAB	IQUANT	2	I/E Stability
CASPEED	IQUANT	4	Control Amp Speed
CONVENTION	IQUANT	1	Current Convention
ICHRANGE	IQUANT	2	Ich Range
ICHRANGEMODE	TOGGLE	F	Ich Auto Range
ICHOFFSETENABLE	TOGGLE	F	Ich Offset Enable
ICHOFFSET	QUANT	0	Ich Offset (V)
ICHFILTER	IQUANT	2	Ich Filter
VCHRANGE	IQUANT	2	Vch Range
VCHRANGEMODE	TOGGLE	T	Vch Auto Range
VCHOFFSETENABLE	TOGGLE	F	Vch Offset Enable
VCHOFFSET	QUANT	0	Vch Offset (V)
VCHFILTER	IQUANT	2	Vch Filter
ACHRANGE	IQUANT	2	Ach Range
ACHOFFSETENABLE	TOGGLE	F	Ach Offset Enable
ACHOFFSET	QUANT	0	Ach Offset (V)
ACHFILTER	IQUANT	0	Ach Filter
IERANGELOWERLIMIT	IQUANT	2	I/E Range Lower Limit
IERANGEMODE	TOGGLE	T	I/E AutoRange
IERANGE	IQUANT	11	I/E Range
POSFEEDENABLE	TOGGLE	F	Positive Feedback IR Comp
POSFEEDRESISTANCE	QUANT	0	Positive Feedback Resistance (ohm)
ACHSELECT	IQUANT	0	Ach Select
SENSECABLEID	IQUANT	14	Sense Cable ID
PWRCABLEID	IQUANT	7	Power Cable ID
DCCALDATE	LABEL	11/9/2022	DC Calibration Date
ACCALDATE	LABEL	11/9/2022	AC Calibration Date
THERMOSELECT	IQUANT	1	Thermo Select
FRAMEWORKVERSION	LABEL	7.8.2	Framework Version
INSTRUMENTVERSION	LABEL	4.40	Instrument Version
COMPLIANCEVOLTAGE	IQUANT	0	Compliance Voltage
CURVE	TABLE	15001
	Pt	T	Vf	Im	Vu	Sig	Ach	IERange	Over	Cycle	Temp
	#	s	V vs. Ref.	A	V	V	V	#	bits	#	deg C
	0	0.002	4.99533E-001	-2.66994E-005	0.00000E+000	5.00000E-001	-7.79272E-004	11	..........a	0	-327.74
	158	0.318	4.82906E-001	5.96648E-006	0.00000E+000	4.84200E-001	-8.45939E-004	8	..........a	0	-327.74
	316	0.634	4.67068E-001	4.18412E-006	0.00000E+000	4.68400E-001	-9.12605E-004	8	..........a	0	-327.74
	474	0.95	4.51285E-001	3.53209E-006	0.00000E+000	4.52600E-001	-8.79272E-004	8	..........a	0	-327.74
	632	1.266	4.35468E-001	3.14296E-006	0.00000E+000	4.36800E-001	-8.37606E-004	8	..........a	0	-327.74
	790	1.582	4.19752E-001	2.68174E-006	0.00000E+000	4.21000E-001	-8.20939E-004	8	..........a	0	-327.74
	948	1.898	4.03960E-001	2.59050E-006	0.00000E+000	4.05200E-001	-8.45939E-004	8	..........a	0	-327.74
	1106	2.214	3.88181E-001	1.98680E-006	0.00000E+000	3.89400E-001	-8.37606E-004	8	..........a	0	-327.74
	1264	2.53	3.72339E-001	1.50392E-006	0.00000E+000	3.73600E-001	-8.37606E-004	8	..........a	0	-327.74
	1422	2.846	3.56522E-001	1.15937E-006	0.00000E+000	3.57800E-001	-8.45939E-004	8	..........a	0	-327.74
	1580	3.162	3.40743E-001	6.08161E-007	0.00000E+000	3.42000E-001	-8.70939E-004	8	..........a	0	-327.74
	1738	3.478	3.24939E-001	5.13585E-007	0.00000E+000	3.26200E-001	-8.45939E-004	8	..........a	0	-327.74
	1896	3.794	3.09181E-001	4.47341E-007	0.00000E+000	3.10400E-001	-8.37606E-004	8	..........a	0	-327.74
	2054	4.11	2.93397E-001	4.09844E-007	0.00000E+000	2.94600E-001	-8.20939E-004	8	..........a	0	-327.74
	2212	4.426	2.77681E-001	2.49440E-007	0.00000E+000	2.78800E-001	-8.54272E-004	8	..........a	0	-327.74
	2370	4.742	2.61847E-001	1.35699E-007	0.00000E+000	2.63000E-001	-8.62605E-004	8	..........a	0	-327.74
	2528	5.058	2.46035E-001	7.11209E-008	0.00000E+000	2.47200E-001	-8.45939E-004	8	..........a	0	-327.74
	2686	5.374	2.30153E-001	1.30699E-007	0.00000E+000	2.31400E-001	-8.29272E-004	8	..........a	0	-327.74
	2844	5.69	2.14368E-001	8.02868E-008	0.00000E+000	2.15600E-001	-8.70939E-004	8	..........a	0	-327.74
	3002	6.006	1.98573E-001	1.36949E-007	0.00000E+000	1.99800E-001	-8.79272E-004	8	..........a	0	-327.74
	3160	6.322	1.82777E-001	5.69553E-008	0.00000E+000	1.84000E-001	-7.95939E-004	8	..........a	0	-327.74
	3318	6.638	1.66997E-001	-4.34533E-008	0.00000E+000	1.68200E-001	-8.62605E-004	8	..........a	0	-327.74
	3476	6.954	1.51194E-001	5.82052E-008	0.00000E+000	1.52400E-001	-8.62605E-004	8	..........a	0	-327.74
	3634	7.27	1.35387E-001	-3.55372E-008	0.00000E+000	1.36600E-001	-7.70939E-004	8	..........a	0	-327.74
	3792	7.586	1.19625E-001	-1.92608E-007	0.00000E+000	1.20800E-001	-8.54272E-004	8	..........a	0	-327.74
	3950	7.902	1.03828E-001	-1.78442E-007	0.00000E+000	1.05000E-001	-8.70939E-004	8	..........a	0	-327.74
	4108	8.218	8.80422E-002	-4.55364E-008	0.00000E+000	8.92000E-002	-8.29272E-004	8	..........a	0	-327.74
	4266	8.534	7.22572E-002	-1.25113E-007	0.00000E+000	7.34000E-002	-8.04272E-004	8	..........a	0	-327.74
	4424	8.85	5.64551E-002	-1.35113E-007	0.00000E+000	5.76000E-002	-8.12605E-004	8	..........a	0	-327.74
	4582	9.166	4.06631E-002	-1.52611E-007	0.00000E+000	4.18000E-002	-8.12605E-004	8	..........a	0	-327.74
	4740	9.482	2.48635E-002	-5.30358E-008	0.00000E+000	2.60000E-002	-8.54272E-004	8	..........a	0	-327.74
	4898	9.798	9.06372E-003	-4.42865E-008	0.00000E+000	1.02000E-002	-8.29272E-004	8	..........a	0	-327.74
	5056	10.114	-6.72248E-003	-1.97191E-007	0.00000E+000	-5.60001E-003	-8.04272E-004	8	..........a	0	-327.74
	5214	10.43	-2.24956E-002	-4.67863E-008	0.00000E+000	-2.14000E-002	-8.62605E-004	8	..........a	0	-327.74
	5372	10.746	-3.83061E-002	-2.02607E-007	0.00000E+000	-3.72000E-002	-8.29272E-004	8	..........a	0	-327.74
	5530	11.062	-5.40986E-002	-1.27197E-007	0.00000E+000	-5.30000E-002	-8.20939E-004	8	..........a	0	-327.74
	5688	11.378	-6.99024E-002	-1.27197E-007	0.00000E+000	-6.88000E-002	-8.37606E-004	8	..........a	0	-327.74
	5846	11.694	-8.56844E-002	-1.85942E-007	0.00000E+000	-8.46000E-002	-8.37606E-004	8	..........a	0	-327.74
	6004	12.01	-1.01462E-001	-3.30514E-007	0.00000E+000	-1.00400E-001	-7.95939E-004	8	..........a	0	-327.74
	6162	12.326	-1.17264E-001	-2.56353E-007	0.00000E+000	-1.16200E-001	-8.54272E-004	8	..........a	0	-327.74
	6320	12.642	-1.33062E-001	-2.41354E-007	0.00000E+000	-1.32000E-001	-7.79272E-004	8	..........a	0	-327.74
	6478	12.958	-1.48849E-001	-3.01766E-007	0.00000E+000	-1.47800E-001	-7.45939E-004	8	..........a	0	-327.74
	6636	13.274	-1.64639E-001	-4.53837E-007	0.00000E+000	-1.63600E-001	-8.12605E-004	8	..........a	0	-327.74
	6794	13.59	-1.80447E-001	-5.41330E-007	0.00000E+000	-1.79400E-001	-8.70939E-004	8	..........a	0	-327.74
	6952	13.906	-1.96242E-001	-4.04674E-007	0.00000E+000	-1.95200E-001	-8.37606E-004	8	..........a	0	-327.74
	7110	14.222	-2.12027E-001	-4.37172E-007	0.00000E+000	-2.11000E-001	-8.37606E-004	8	..........a	0	-327.74
	7268	14.538	-2.27828E-001	-5.40913E-007	0.00000E+000	-2.26800E-001	-8.54272E-004	8	..........a	0	-327.74
[...]
	9796	19.594	-4.80361E-001	-9.10274E-005	0.00000E+000	-4.79600E-001	-8.20939E-004	8	..........a	0	-327.74
	9954	19.91	-4.96203E-001	-1.50208E-004	0.00000E+000	-4.95400E-001	-8.37606E-004	8	..........a	0	-327.74
	10112	20.226	-5.11865E-001	-2.38737E-004	0.00000E+000	-5.11200E-001	-8.37606E-004	8	..........a	0	-327.74
	10270	20.542	-5.27825E-001	-3.53292E-004	0.00000E+000	-5.27000E-001	-8.45939E-004	9	..........a	0	-327.74
	10428	20.858	-5.43592E-001	-4.62511E-004	0.00000E+000	-5.42800E-001	-8.79272E-004	9	..........a	0	-327.74
	10586	21.174	-5.59429E-001	-5.36118E-004	0.00000E+000	-5.58600E-001	-8.20939E-004	9	..........a	0	-327.74
	10744	21.49	-5.75246E-001	-5.75879E-004	0.00000E+000	-5.74400E-001	-8.37606E-004	9	..........a	0	-327.74
	10902	21.806	-5.90908E-001	-5.92698E-004	0.00000E+000	-5.90200E-001	-8.37606E-004	9	..........a	0	-327.74
	11060	22.122	-6.06729E-001	-6.01189E-004	0.00000E+000	-6.06000E-001	-7.79272E-004	9	..........a	0	-327.74
	11218	22.438	-6.22475E-001	-6.03023E-004	0.00000E+000	-6.21800E-001	-8.04272E-004	9	..........a	0	-327.74
	11376	22.754	-6.38333E-001	-6.04323E-004	0.00000E+000	-6.37600E-001	-7.95939E-004	9	..........a	0	-327.74
	11534	23.07	-6.54096E-001	-6.05827E-004	0.00000E+000	-6.53400E-001	-8.29272E-004	9	..........a	0	-327.74
	11692	23.386	-6.69875E-001	-6.09475E-004	0.00000E+000	-6.69200E-001	-8.70939E-004	9	..........a	0	-327.74
	11850	23.702	-6.85696E-001	-6.07774E-004	0.00000E+000	-6.85000E-001	-8.62605E-004	9	..........a	0	-327.74
	12008	24.018	-7.01500E-001	-6.06412E-004	0.00000E+000	-7.00800E-001	-8.37606E-004	9	..........a	0	-327.74
	12166	24.334	-7.17242E-001	-6.13023E-004	0.00000E+000	-7.16600E-001	-8.29272E-004	9	..........a	0	-327.74
	12324	24.65	-7.33108E-001	-6.12300E-004	0.00000E+000	-7.32400E-001	-8.04272E-004	9	..........a	0	-327.74
	12482	24.966	-7.48871E-001	-6.06805E-004	0.00000E+000	-7.48200E-001	-8.37606E-004	9	..........a	0	-327.74
	12640	25.282	-7.64717E-001	-6.06726E-004	0.00000E+000	-7.64000E-001	-8.37606E-004	9	..........a	0	-327.74
	12798	25.598	-7.80500E-001	-6.09421E-004	0.00000E+000	-7.79800E-001	-8.20939E-004	9	..........a	0	-327.74
	12956	25.914	-7.96262E-001	-6.08827E-004	0.00000E+000	-7.95600E-001	-8.29272E-004	9	..........a	0	-327.74
	13114	26.23	-8.12012E-001	-6.12342E-004	0.00000E+000	-8.11400E-001	-8.95939E-004	9	..........a	0	-327.74
	13272	26.546	-8.27746E-001	-6.11268E-004	0.00000E+000	-8.27200E-001	-8.54272E-004	9	..........a	0	-327.74
	13430	26.862	-8.43625E-001	-6.09964E-004	0.00000E+000	-8.43000E-001	-8.37606E-004	9	..........a	0	-327.74
	13588	27.178	-8.59400E-001	-6.10766E-004	0.00000E+000	-8.58800E-001	-8.45939E-004	9	..........a	0	-327.74
	13746	27.494	-8.75208E-001	-6.11460E-004	0.00000E+000	-8.74600E-001	-8.62605E-004	9	..........a	0	-327.74
	13904	27.81	-8.90987E-001	-6.08702E-004	0.00000E+000	-8.90400E-001	-8.54272E-004	9	..........a	0	-327.74
	14062	28.126	-9.06767E-001	-6.07457E-004	0.00000E+000	-9.06200E-001	-8.37606E-004	9	..........a	0	-327.74
	14220	28.442	-9.22579E-001	-6.11126E-004	0.00000E+000	-9.22000E-001	-8.45939E-004	9	..........a	0	-327.74
	14378	28.758	-9.38312E-001	-6.09149E-004	0.00000E+000	-9.37800E-001	-7.95939E-004	9	..........a	0	-327.74
	14536	29.074	-9.54142E-001	-6.14586E-004	0.00000E+000	-9.53600E-001	-8.12605E-004	9	..........a	0	-327.74
	14694	29.39	-9.69946E-001	-6.11351E-004	0.00000E+000	-9.69400E-001	-8.79272E-004	9	..........a	0	-327.74
	14852	29.706	-9.85725E-001	-6.11527E-004	0.00000E+000	-9.85200E-001	-8.29272E-004	9	..........a	0	-327.74
	15000	30.002	-1.00048E+000	-6.10950E-004	0.00000E+000	-1.00000E+000	-8.29272E-004	9	..........a	0	-327.74

File: 1mkcl-18btmapaq-nitrogen-50mvpers.DTA
EXPLAIN
TAG	CV
TITLE	LABEL	Cyclic Voltammetry	Test &Identifier
DATE	LABEL	1/31/2023	Date
TIME	LABEL	15:18:21	Time
NOTES	NOTES	1	&Notes...

PSTAT	PSTAT	REF3000-21108	Potentiostat
VINIT	POTEN	5.00000E-001	F	Initial &E (V)
VLIMIT1	POTEN	-1.00000E+000	F	Scan Limit &1 (V)
VLIMIT2	POTEN	5.00000E-001	F	Scan Limit &2 (V)
VFINAL	POTEN	5.00000E-001	F	Final &E (V)
SCANRATE	QUANT	4.99999E+001	&Scan Rate (mV/s)
STEPSIZE	QUANT	1.00000E+000	St&ep Size (mV)
CYCLES	IQUANT	1	C&ycles (#)
IMODE	SELECTOR	1	I/E Range &Mode
IRANGE	QUANT	1.00000E+001	&Max Current (mA)
AREA	QUANT	1.00000E+000	Electrode &Area (cm^2)
ELECTRODETYPE	SELECTOR	0	Electrode Type
STRIPPING	TOGGLE	F	Used for Stripping
POLARITY	TOGGLE	F	Signal Polarity
CONDIT	TWOPARAM	F	1.50000E+001	0.00000E+000	Conditionin&g	Time(s)	E(V)
DELAY	TWOPARAM	F	5.00000E+000	0.00000E+000	Init. De&lay	Time(s)	Stab.(mV/s)
EQDELAY	QUANT	0.00000E+000	Equil. &Time (s)
IRCOMP	SELECTOR	0	IRCom&p
PFCOR	QUANT	5.00000E+001	PF Corr. (ohm)
SAMPLINGMODE	SELECTOR	1	Sampling &Mode
EOC	QUANT	0	Open Circuit (V)
PSTATMODEL	IQUANT	5	Pstat Model
PSTATSECTION	LABEL	REF3000-21108	Pstat Section
PSTATSERIALNO	LABEL	21108	Pstat Serial Number
CTRLMODE	IQUANT	1	Control Mode
ELECTROMETER	IQUANT	0	RE=0 or CS=1
IESTAB	IQUANT	2	I/E Stability
CASPEED	IQUANT	4	Control Amp Speed
CONVENTION	IQUANT	1	Current Convention
ICHRANGE	IQUANT	2	Ich Range
ICHRANGEMODE	TOGGLE	F	Ich Auto Range
ICHOFFSETENABLE	TOGGLE	F	Ich Offset Enable
ICHOFFSET	QUANT	0	Ich Offset (V)
ICHFILTER	IQUANT	2	Ich Filter
VCHRANGE	IQUANT	2	Vch Range
VCHRANGEMODE	TOGGLE	F	Vch Auto Range
VCHOFFSETENABLE	TOGGLE	F	Vch Offset Enable
VCHOFFSET	QUANT	0	Vch Offset (V)
VCHFILTER	IQUANT	2	Vch Filter
ACHRANGE	IQUANT	2	Ach Range
ACHOFFSETENABLE	TOGGLE	F	Ach Offset Enable
ACHOFFSET	QUANT	0	Ach Offset (V)
ACHFILTER	IQUANT	0	Ach Filter
IERANGELOWERLIMIT	IQUANT	2	I/E Range Lower Limit
IERANGEMODE	TOGGLE	F	I/E AutoRange
IERANGE	IQUANT	10	I/E Range
POSFEEDENABLE	TOGGLE	F	Positive Feedback IR Comp
POSFEEDRESISTANCE	QUANT	0	Positive Feedback Resistance (ohm)
ACHSELECT	IQUANT	0	Ach Select
SENSECABLEID	IQUANT	14	Sense Cable ID
PWRCABLEID	IQUANT	7	Power Cable ID
DCCALDATE	LABEL	11/9/2022	DC Calibration Date
ACCALDATE	LABEL	11/9/2022	AC Calibration Date
THERMOSELECT	IQUANT	1	Thermo Select
FRAMEWORKVERSION	LABEL	7.8.2	Framework Version
INSTRUMENTVERSION	LABEL	4.40	Instrument Version
COMPLIANCEVOLTAGE	IQUANT	0	Compliance Voltage
CURVE1	TABLE
	Pt	T	Vf	Im	Vu	Sig	Ach	IERange	Over	Temp
	#	s	V vs. Ref.	A	V	V	V	#	bits	deg C
	0	0.02	4.98820E-001	9.11539E-006	0.00000E+000	5.00000E-001	-7.28439E-004	10	..........a	-327.74
	31	0.64	4.67838E-001	2.59145E-007	0.00000E+000	4.69000E-001	-7.69272E-004	10	..........a	-327.74
	62	1.26	4.36815E-001	-2.46329E-007	0.00000E+000	4.38000E-001	-7.61772E-004	10	..........a	-327.74
	93	1.88	4.05873E-001	-8.47885E-007	0.00000E+000	4.07000E-001	-7.60939E-004	10	..........a	-327.74
	124	2.5	3.74808E-001	-8.10288E-007	0.00000E+000	3.76000E-001	-7.48439E-004	10	..........a	-327.74
	155	3.12	3.43849E-001	-9.27258E-007	0.00000E+000	3.45000E-001	-7.59272E-004	10	..........a	-327.74
	186	3.74	3.12914E-001	-1.09853E-006	0.00000E+000	3.14000E-001	-7.45939E-004	10	..........a	-327.74
	217	4.36	2.81863E-001	-1.49122E-006	0.00000E+000	2.83000E-001	-7.34272E-004	10	..........a	-327.74
	248	4.98	2.50899E-001	-1.42855E-006	0.00000E+000	2.52000E-001	-7.41772E-004	10	..........a	-327.74
	279	5.6	2.19890E-001	-1.40767E-006	0.00000E+000	2.21000E-001	-7.68439E-004	10	..........a	-327.74
	310	6.22	1.88956E-001	-1.63325E-006	0.00000E+000	1.90000E-001	-7.34272E-004	10	..........a	-327.74
	341	6.84	1.57971E-001	-1.49539E-006	0.00000E+000	1.59000E-001	-7.39272E-004	10	..........a	-327.74
	372	7.46	1.26953E-001	-1.74187E-006	0.00000E+000	1.28000E-001	-7.15939E-004	10	..........a	-327.74
	403	8.08	9.59257E-002	-1.92985E-006	0.00000E+000	9.70000E-002	-7.45106E-004	10	..........a	-327.74
	434	8.7	6.50673E-002	-1.57894E-006	0.00000E+000	6.60000E-002	-7.10106E-004	10	..........a	-327.74
	465	9.32	3.39977E-002	-1.72516E-006	0.00000E+000	3.50000E-002	-7.12606E-004	10	..........a	-327.74
	496	9.94	2.95815E-003	-1.92985E-006	0.00000E+000	4.00001E-003	-7.53439E-004	10	..........a	-327.74
	527	10.56	-2.79398E-002	-1.92150E-006	0.00000E+000	-2.70000E-002	-7.57606E-004	10	..........a	-327.74
	558	11.18	-5.89760E-002	-2.04682E-006	0.00000E+000	-5.80000E-002	-7.35106E-004	10	..........a	-327.74
	589	11.8	-8.99377E-002	-2.09695E-006	0.00000E+000	-8.90000E-002	-7.13439E-004	10	..........a	-327.74
	620	12.42	-1.20990E-001	-2.37266E-006	0.00000E+000	-1.20000E-001	-7.36772E-004	10	..........a	-327.74
	651	13.04	-1.51942E-001	-2.32671E-006	0.00000E+000	-1.51000E-001	-7.35939E-004	10	..........a	-327.74
	682	13.66	-1.82881E-001	-3.21234E-006	0.00000E+000	-1.82000E-001	-7.05105E-004	10	..........a	-327.74
	713	14.28	-2.13941E-001	-4.09378E-006	0.00000E+000	-2.13000E-001	-7.01772E-004	10	..........a	-327.74
	744	14.9	-2.44871E-001	-6.10733E-006	0.00000E+000	-2.44000E-001	-6.95106E-004	10	..........a	-327.74
	775	15.52	-2.75858E-001	-9.57881E-006	0.00000E+000	-2.75000E-001	-7.10939E-004	10	..........a	-327.74
	806	16.14	-3.06917E-001	-1.17051E-005	0.00000E+000	-3.06000E-001	-7.63439E-004	10	..........a	-327.74
	837	16.76	-3.37904E-001	-1.29960E-005	0.00000E+000	-3.37000E-001	-7.41772E-004	10	..........a	-327.74
	868	17.38	-3.68801E-001	-1.35098E-005	0.00000E+000	-3.68000E-001	-7.55939E-004	10	..........a	-327.74
	899	18	-3.99859E-001	-1.29793E-005	0.00000E+000	-3.99000E-001	-7.49272E-004	10	..........a	-327.74
	930	18.62	-4.30826E-001	-1.34054E-005	0.00000E+000	-4.30000E-001	-7.11772E-004	10	..........a	-327.74
	961	19.24	-4.61782E-001	-2.32183E-005	0.00000E+000	-4.61000E-001	-7.07606E-004	10	..........a	-327.74
	992	19.86	-4.92788E-001	-6.30004E-005	0.00000E+000	-4.92000E-001	-7.34272E-004	10	..........a	-327.74
	1023	20.48	-5.23694E-001	-1.54132E-004	0.00000E+000	-5.23000E-001	-7.30939E-004	10	..........a	-327.74
	1054	21.1	-5.54791E-001	-2.09312E-004	0.00000E+000	-5.54000E-001	-7.70106E-004	10	..........a	-327.74
	1085	21.72	-5.85818E-001	-1.62545E-004	0.00000E+000	-5.85000E-001	-7.13439E-004	10	..........a	-327.74
	1116	22.34	-6.16706E-001	-1.33048E-004	0.00000E+000	-6.16000E-001	-7.11772E-004	10	..........a	-327.74
	1147	22.96	-6.47786E-001	-1.15770E-004	0.00000E+000	-6.47000E-001	-7.10939E-004	10	..........a	-327.74
	1178	23.58	-6.78728E-001	-1.06801E-004	0.00000E+000	-6.78000E-001	-7.43439E-004	10	..........a	-327.74
	1209	24.2	-7.09762E-001	-1.00560E-004	0.00000E+000	-7.09000E-001	-7.23439E-004	10	..........a	-327.74
	1240	24.82	-7.40722E-001	-9.71721E-005	0.00000E+000	-7.40000E-001	-7.53439E-004	10	..........a	-327.74
	1271	25.44	-7.71641E-001	-9.49246E-005	0.00000E+000	-7.71000E-001	-7.33439E-004	10	..........a	-327.74
	1302	26.06	-8.02671E-001	-9.40181E-005	0.00000E+000	-8.02000E-001	-7.42605E-004	10	..........a	-327.74
	1333	26.68	-8.33629E-001	-9.22886E-005	0.00000E+000	-8.33000E-001	-7.54272E-004	10	..........a	-327.74
	1364	27.3	-8.64580E-001	-9.29361E-005	0.00000E+000	-8.64000E-001	-7.51772E-004	10	..........a	-327.74
	1395	27.92	-8.95639E-001	-9.15868E-005	0.00000E+000	-8.95000E-001	-7.32606E-004	10	..........a	-327.74
	1426	28.54	-9.26621E-001	-8.95816E-005	0.00000E+000	-9.26000E-001	-7.32606E-004	10	..........a	-327.74
[...]
	1984	39.7	-5.16816E-001	4.33206E-005	0.00000E+000	-5.16000E-001	-7.39272E-004	10	..........a	-327.74
	2015	40.32	-4.85797E-001	6.42455E-005	0.00000E+000	-4.85000E-001	-7.75105E-004	10	..........a	-327.74
	2046	40.94	-4.54830E-001	4.68631E-005	0.00000E+000	-4.54000E-001	-7.62605E-004	10	..........a	-327.74
	2077	41.56	-4.23849E-001	2.76216E-005	0.00000E+000	-4.23000E-001	-7.07606E-004	10	..........a	-327.74
	2108	42.18	-3.92841E-001	1.51602E-005	0.00000E+000	-3.92000E-001	-7.53439E-004	10	..........a	-327.74
	2139	42.8	-3.61833E-001	7.86633E-006	0.00000E+000	-3.61000E-001	-7.16772E-004	10	..........a	-327.74
	2170	43.42	-3.30896E-001	3.88519E-006	0.00000E+000	-3.30000E-001	-7.65106E-004	10	..........a	-327.74
	2201	44.04	-2.99841E-001	2.11394E-006	0.00000E+000	-2.99000E-001	-7.57606E-004	10	..........a	-327.74
	2232	44.66	-2.68851E-001	7.64620E-007	0.00000E+000	-2.68000E-001	-7.77606E-004	10	..........a	-327.74
	2263	45.28	-2.37898E-001	1.92306E-007	0.00000E+000	-2.37000E-001	-7.54272E-004	10	..........a	-327.74
	2294	45.9	-2.06875E-001	-1.46070E-007	0.00000E+000	-2.06000E-001	-7.45106E-004	10	..........a	-327.74
	2325	46.52	-1.75931E-001	-2.04554E-007	0.00000E+000	-1.75000E-001	-7.70939E-004	10	..........a	-327.74
	2356	47.14	-1.44936E-001	3.35617E-008	0.00000E+000	-1.44000E-001	-7.70939E-004	10	..........a	-327.74
	2387	47.76	-1.13947E-001	2.29903E-007	0.00000E+000	-1.13000E-001	-7.86772E-004	10	..........a	-327.74
	2418	48.38	-8.29627E-002	1.88128E-007	0.00000E+000	-8.20000E-002	-7.70939E-004	10	..........a	-327.74
	2449	49	-5.19127E-002	4.17889E-007	0.00000E+000	-5.10000E-002	-7.50105E-004	10	..........a	-327.74
	2480	49.62	-2.09714E-002	3.59405E-007	0.00000E+000	-2.00000E-002	-7.70939E-004	10	..........a	-327.74
	2511	50.24	1.00023E-002	1.29644E-007	0.00000E+000	1.10000E-002	-7.60939E-004	10	..........a	-327.74
	2542	50.86	4.10806E-002	6.69815E-008	0.00000E+000	4.20000E-002	-7.40106E-004	10	..........a	-327.74
	2573	51.48	7.19902E-002	1.08756E-007	0.00000E+000	7.30000E-002	-7.57606E-004	10	..........a	-327.74
	2604	52.1	1.03002E-001	2.21548E-007	0.00000E+000	1.04000E-001	-7.88439E-004	10	..........a	-327.74
	2635	52.72	1.33964E-001	-1.16827E-007	0.00000E+000	1.35000E-001	-7.91772E-004	10	..........a	-327.74
	2666	53.34	1.64954E-001	-1.12650E-007	0.00000E+000	1.66000E-001	-7.67605E-004	10	..........a	-327.74
	2697	53.96	1.96004E-001	1.29644E-007	0.00000E+000	1.97000E-001	-7.86772E-004	10	..........a	-327.74
	2728	54.58	2.26934E-001	-4.99878E-008	0.00000E+000	2.28000E-001	-7.78439E-004	10	..........a	-327.74
	2759	55.2	2.57871E-001	-8.75851E-008	0.00000E+000	2.59000E-001	-7.76772E-004	10	..........a	-327.74
	2790	55.82	2.88919E-001	-1.25182E-007	0.00000E+000	2.90000E-001	-7.85939E-004	10	..........a	-327.74
	2821	56.44	3.19883E-001	5.86266E-008	0.00000E+000	3.21000E-001	-7.71772E-004	10	..........a	-327.74
	2852	57.06	3.50866E-001	3.05098E-007	0.00000E+000	3.52000E-001	-7.62605E-004	10	..........a	-327.74
	2883	57.68	3.81903E-001	7.39555E-007	0.00000E+000	3.83000E-001	-7.51772E-004	10	..........a	-327.74
	2914	58.3	4.12819E-001	5.76633E-007	0.00000E+000	4.14000E-001	-7.77606E-004	10	..........a	-327.74
	2945	58.92	4.43831E-001	8.48169E-007	0.00000E+000	4.45000E-001	-7.78439E-004	10	..........a	-327.74
	2976	59.54	4.74829E-001	7.01958E-007	0.00000E+000	4.76000E-001	-7.57606E-004	10	..........a	-327.74
	3000	60.02	4.98815E-001	8.60702E-007	0.00000E+000	5.00000E-001	-7.49272E-004	10	..........a	-327.74
CURVE2	TABLE
	Pt	T	Vf	Im	Vu	Sig	Ach	IERange	Over	Temp
	#	s	V vs. Ref.	A	V	V	V	#	bits	deg C
	3001	60.04	4.98816E-001	1.11971E-006	0.00000E+000	5.00000E-001	-7.78439E-004	10	..........a	-327.74