Folder: 2024-09-QuCO2-NCE/data/02-SI/Figures_S9_S11_RDE/18btmapaq-rde (part 6)

File: 1mkcl-18btmapaq-nitrogen-500mvpers.DTA
EXPLAIN
TAG	CV
TITLE	LABEL	Cyclic Voltammetry	Test &Identifier
DATE	LABEL	1/31/2023	Date
TIME	LABEL	15:21:26	Time
NOTES	NOTES	1	&Notes...

PSTAT	PSTAT	REF3000-21108	Potentiostat
VINIT	POTEN	5.00000E-001	F	Initial &E (V)
VLIMIT1	POTEN	-1.00000E+000	F	Scan Limit &1 (V)
VLIMIT2	POTEN	5.00000E-001	F	Scan Limit &2 (V)
VFINAL	POTEN	5.00000E-001	F	Final &E (V)
SCANRATE	QUANT	4.99999E+002	&Scan Rate (mV/s)
STEPSIZE	QUANT	1.00000E+000	St&ep Size (mV)
CYCLES	IQUANT	1	C&ycles (#)
IMODE	SELECTOR	1	I/E Range &Mode
IRANGE	QUANT	1.00000E+001	&Max Current (mA)
AREA	QUANT	1.00000E+000	Electrode &Area (cm^2)
ELECTRODETYPE	SELECTOR	0	Electrode Type
STRIPPING	TOGGLE	F	Used for Stripping
POLARITY	TOGGLE	F	Signal Polarity
CONDIT	TWOPARAM	F	1.50000E+001	0.00000E+000	Conditionin&g	Time(s)	E(V)
DELAY	TWOPARAM	F	5.00000E+000	0.00000E+000	Init. De&lay	Time(s)	Stab.(mV/s)
EQDELAY	QUANT	0.00000E+000	Equil. &Time (s)
IRCOMP	SELECTOR	0	IRCom&p
PFCOR	QUANT	5.00000E+001	PF Corr. (ohm)
SAMPLINGMODE	SELECTOR	1	Sampling &Mode
EOC	QUANT	0	Open Circuit (V)
PSTATMODEL	IQUANT	5	Pstat Model
PSTATSECTION	LABEL	REF3000-21108	Pstat Section
PSTATSERIALNO	LABEL	21108	Pstat Serial Number
CTRLMODE	IQUANT	1	Control Mode
ELECTROMETER	IQUANT	0	RE=0 or CS=1
IESTAB	IQUANT	2	I/E Stability
CASPEED	IQUANT	4	Control Amp Speed
CONVENTION	IQUANT	1	Current Convention
ICHRANGE	IQUANT	2	Ich Range
ICHRANGEMODE	TOGGLE	F	Ich Auto Range
ICHOFFSETENABLE	TOGGLE	F	Ich Offset Enable
ICHOFFSET	QUANT	0	Ich Offset (V)
ICHFILTER	IQUANT	2	Ich Filter
VCHRANGE	IQUANT	2	Vch Range
VCHRANGEMODE	TOGGLE	F	Vch Auto Range
VCHOFFSETENABLE	TOGGLE	F	Vch Offset Enable
VCHOFFSET	QUANT	0	Vch Offset (V)
VCHFILTER	IQUANT	2	Vch Filter
ACHRANGE	IQUANT	2	Ach Range
ACHOFFSETENABLE	TOGGLE	F	Ach Offset Enable
ACHOFFSET	QUANT	0	Ach Offset (V)
ACHFILTER	IQUANT	0	Ach Filter
IERANGELOWERLIMIT	IQUANT	2	I/E Range Lower Limit
IERANGEMODE	TOGGLE	F	I/E AutoRange
IERANGE	IQUANT	10	I/E Range
POSFEEDENABLE	TOGGLE	F	Positive Feedback IR Comp
POSFEEDRESISTANCE	QUANT	0	Positive Feedback Resistance (ohm)
ACHSELECT	IQUANT	0	Ach Select
SENSECABLEID	IQUANT	14	Sense Cable ID
PWRCABLEID	IQUANT	7	Power Cable ID
DCCALDATE	LABEL	11/9/2022	DC Calibration Date
ACCALDATE	LABEL	11/9/2022	AC Calibration Date
THERMOSELECT	IQUANT	1	Thermo Select
FRAMEWORKVERSION	LABEL	7.8.2	Framework Version
INSTRUMENTVERSION	LABEL	4.40	Instrument Version
COMPLIANCEVOLTAGE	IQUANT	0	Compliance Voltage
CURVE1	TABLE
	Pt	T	Vf	Im	Vu	Sig	Ach	IERange	Over	Temp
	#	s	V vs. Ref.	A	V	V	V	#	bits	deg C
	0	0.002	4.98760E-001	1.63800E-005	0.00000E+000	5.00000E-001	-8.79272E-004	10	..........a	-327.74
	31	0.064	4.67735E-001	3.68050E-006	0.00000E+000	4.69000E-001	-8.79272E-004	10	..........a	-327.74
	62	0.126	4.36773E-001	9.23364E-007	0.00000E+000	4.38000E-001	-8.45939E-004	10	..........a	-327.74
	93	0.188	4.05889E-001	-6.64077E-007	0.00000E+000	4.07000E-001	-9.29272E-004	10	..........a	-327.74
	124	0.25	3.74831E-001	-2.20974E-006	0.00000E+000	3.76000E-001	-9.12605E-004	10	..........a	-327.74
	155	0.312	3.43802E-001	-3.75541E-006	0.00000E+000	3.45000E-001	-8.54272E-004	10	..........a	-327.74
	186	0.374	3.12873E-001	-3.79718E-006	0.00000E+000	3.14000E-001	-8.20939E-004	10	..........a	-327.74
	217	0.436	2.81844E-001	-4.13138E-006	0.00000E+000	2.83000E-001	-8.29272E-004	10	..........a	-327.74
	248	0.498	2.50848E-001	-4.25670E-006	0.00000E+000	2.52000E-001	-8.54272E-004	10	..........a	-327.74
	279	0.56	2.19744E-001	-4.29848E-006	0.00000E+000	2.21000E-001	-8.79272E-004	10	..........a	-327.74
	310	0.622	1.88898E-001	-4.25670E-006	0.00000E+000	1.90000E-001	-8.12605E-004	10	..........a	-327.74
	341	0.684	1.57952E-001	-4.34025E-006	0.00000E+000	1.59000E-001	-8.29272E-004	10	..........a	-327.74
	372	0.746	1.26906E-001	-4.29848E-006	0.00000E+000	1.28000E-001	-8.37606E-004	10	..........a	-327.74
	403	0.808	9.58436E-002	-4.79978E-006	0.00000E+000	9.70000E-002	-7.87605E-004	10	..........a	-327.74
	434	0.87	6.50144E-002	-4.50735E-006	0.00000E+000	6.60000E-002	-8.45939E-004	10	..........a	-327.74
	465	0.932	3.39519E-002	-4.67445E-006	0.00000E+000	3.50000E-002	-8.54272E-004	10	..........a	-327.74
	496	0.994	2.92273E-003	-5.00865E-006	0.00000E+000	4.00001E-003	-8.79272E-004	10	..........a	-327.74
	527	1.056	-2.80939E-002	-4.46558E-006	0.00000E+000	-2.70000E-002	-7.87605E-004	10	..........a	-327.74
	558	1.118	-5.90398E-002	-4.50735E-006	0.00000E+000	-5.80000E-002	-8.29272E-004	10	..........a	-327.74
	589	1.18	-8.99981E-002	-4.63268E-006	0.00000E+000	-8.90000E-002	-8.20939E-004	10	..........a	-327.74
	620	1.242	-1.21052E-001	-4.79978E-006	0.00000E+000	-1.20000E-001	-7.95939E-004	10	..........a	-327.74
	651	1.304	-1.51990E-001	-5.17575E-006	0.00000E+000	-1.51000E-001	-7.95939E-004	10	..........a	-327.74
	682	1.366	-1.82906E-001	-5.55172E-006	0.00000E+000	-1.82000E-001	-8.62605E-004	10	..........a	-327.74
	713	1.428	-2.13923E-001	-6.01124E-006	0.00000E+000	-2.13000E-001	-8.12605E-004	10	..........a	-327.74
	744	1.49	-2.44923E-001	-8.01643E-006	0.00000E+000	-2.44000E-001	-8.54272E-004	10	..........a	-327.74
	775	1.552	-2.75881E-001	-1.06482E-005	0.00000E+000	-2.75000E-001	-8.45939E-004	10	..........a	-327.74
	806	1.614	-3.06919E-001	-1.44915E-005	0.00000E+000	-3.06000E-001	-7.87605E-004	10	..........a	-327.74
	837	1.676	-3.37890E-001	-1.93792E-005	0.00000E+000	-3.37000E-001	-8.20939E-004	10	..........a	-327.74
	868	1.738	-3.68877E-001	-2.40997E-005	0.00000E+000	-3.68000E-001	-8.70939E-004	10	..........a	-327.74
	899	1.8	-3.99877E-001	-2.88620E-005	0.00000E+000	-3.99000E-001	-8.37606E-004	10	..........a	-327.74
	930	1.862	-4.30856E-001	-3.91386E-005	0.00000E+000	-4.30000E-001	-8.70939E-004	10	..........a	-327.74
	961	1.924	-4.61886E-001	-7.64017E-005	0.00000E+000	-4.61000E-001	-8.37606E-004	10	..........a	-327.74
	992	1.986	-4.92856E-001	-1.84139E-004	0.00000E+000	-4.92000E-001	-8.12605E-004	10	..........a	-327.74
	1023	2.048	-5.23731E-001	-4.05127E-004	0.00000E+000	-5.23000E-001	-8.54272E-004	10	..........a	-327.74
	1054	2.11	-5.54823E-001	-6.04602E-004	0.00000E+000	-5.54000E-001	-8.54272E-004	10	..........a	-327.74
	1085	2.172	-5.85806E-001	-5.51673E-004	0.00000E+000	-5.85000E-001	-8.20939E-004	10	..........a	-327.74
	1116	2.234	-6.16794E-001	-4.29649E-004	0.00000E+000	-6.16000E-001	-8.20939E-004	10	..........a	-327.74
	1147	2.296	-6.47769E-001	-3.59969E-004	0.00000E+000	-6.47000E-001	-8.12605E-004	10	..........a	-327.74
	1178	2.358	-6.78748E-001	-3.16356E-004	0.00000E+000	-6.78000E-001	-8.20939E-004	10	..........a	-327.74
	1209	2.42	-7.09773E-001	-2.85443E-004	0.00000E+000	-7.09000E-001	-8.37606E-004	10	..........a	-327.74
	1240	2.482	-7.40773E-001	-2.61756E-004	0.00000E+000	-7.40000E-001	-8.12605E-004	10	..........a	-327.74
	1271	2.544	-7.71652E-001	-2.43501E-004	0.00000E+000	-7.71000E-001	-7.95939E-004	10	..........a	-327.74
	1302	2.606	-8.02727E-001	-2.28796E-004	0.00000E+000	-8.02000E-001	-7.79272E-004	10	..........a	-327.74
	1333	2.668	-8.33648E-001	-2.16723E-004	0.00000E+000	-8.33000E-001	-8.20939E-004	10	..........a	-327.74
	1364	2.73	-8.64606E-001	-2.06196E-004	0.00000E+000	-8.64000E-001	-8.29272E-004	10	..........a	-327.74
	1395	2.792	-8.95694E-001	-1.97214E-004	0.00000E+000	-8.95000E-001	-8.62605E-004	10	..........a	-327.74
	1426	2.854	-9.26652E-001	-1.89945E-004	0.00000E+000	-9.26000E-001	-8.37606E-004	10	..........a	-327.74
[...]
	1984	3.97	-5.16898E-001	3.43184E-004	0.00000E+000	-5.16000E-001	-8.37606E-004	10	..........a	-327.74
	2015	4.032	-4.85844E-001	4.35464E-004	0.00000E+000	-4.85000E-001	-8.62605E-004	10	..........a	-327.74
	2046	4.094	-4.54886E-001	3.47487E-004	0.00000E+000	-4.54000E-001	-8.95939E-004	10	..........a	-327.74
	2077	4.156	-4.23873E-001	2.63519E-004	0.00000E+000	-4.23000E-001	-8.54272E-004	10	..........a	-327.74
	2108	4.218	-3.92869E-001	2.08711E-004	0.00000E+000	-3.92000E-001	-8.70939E-004	10	..........a	-327.74
	2139	4.28	-3.61931E-001	1.73787E-004	0.00000E+000	-3.61000E-001	-7.87605E-004	10	..........a	-327.74
	2170	4.342	-3.30927E-001	1.49266E-004	0.00000E+000	-3.30000E-001	-8.20939E-004	10	..........a	-327.74
	2201	4.404	-2.99902E-001	1.31887E-004	0.00000E+000	-2.99000E-001	-8.87605E-004	10	..........a	-327.74
	2232	4.466	-2.68923E-001	1.17517E-004	0.00000E+000	-2.68000E-001	-8.12605E-004	10	..........a	-327.74
	2263	4.528	-2.37944E-001	1.07324E-004	0.00000E+000	-2.37000E-001	-8.87605E-004	10	..........a	-327.74
	2294	4.59	-2.06911E-001	9.85092E-005	0.00000E+000	-2.06000E-001	-8.45939E-004	10	..........a	-327.74
	2325	4.652	-1.76044E-001	9.13239E-005	0.00000E+000	-1.75000E-001	-8.70939E-004	10	..........a	-327.74
	2356	4.714	-1.44986E-001	8.45146E-005	0.00000E+000	-1.44000E-001	-8.29272E-004	10	..........a	-327.74
	2387	4.776	-1.14011E-001	7.93763E-005	0.00000E+000	-1.13000E-001	-8.45939E-004	10	..........a	-327.74
	2418	4.838	-8.30314E-002	7.53242E-005	0.00000E+000	-8.20000E-002	-8.70939E-004	10	..........a	-327.74
	2449	4.9	-5.20273E-002	7.13138E-005	0.00000E+000	-5.10000E-002	-8.79272E-004	10	..........a	-327.74
	2480	4.962	-2.10689E-002	6.84731E-005	0.00000E+000	-2.00000E-002	-8.87605E-004	10	..........a	-327.74
	2511	5.024	9.99356E-003	6.60920E-005	0.00000E+000	1.10000E-002	-8.54272E-004	10	..........a	-327.74
	2542	5.086	4.10852E-002	6.40868E-005	0.00000E+000	4.20000E-002	-8.79272E-004	10	..........a	-327.74
	2573	5.148	7.18102E-002	6.06195E-005	0.00000E+000	7.30000E-002	-8.45939E-004	10	..........a	-327.74
	2604	5.21	1.02939E-001	5.76952E-005	0.00000E+000	1.04000E-001	-7.95939E-004	10	..........a	-327.74
	2635	5.272	1.33931E-001	5.38937E-005	0.00000E+000	1.35000E-001	-8.45939E-004	10	..........a	-327.74
	2666	5.334	1.64902E-001	5.15544E-005	0.00000E+000	1.66000E-001	-8.29272E-004	10	..........a	-327.74
	2697	5.396	1.95939E-001	4.82542E-005	0.00000E+000	1.97000E-001	-8.87605E-004	10	..........a	-327.74
	2728	5.458	2.26864E-001	4.61654E-005	0.00000E+000	2.28000E-001	-8.79272E-004	10	..........a	-327.74
	2759	5.52	2.57848E-001	4.42855E-005	0.00000E+000	2.59000E-001	-8.70939E-004	10	..........a	-327.74
	2790	5.582	2.88864E-001	4.26981E-005	0.00000E+000	2.90000E-001	-8.29272E-004	10	..........a	-327.74
	2821	5.644	3.19864E-001	4.08600E-005	0.00000E+000	3.21000E-001	-8.20939E-004	10	..........a	-327.74
	2852	5.706	3.50860E-001	4.00663E-005	0.00000E+000	3.52000E-001	-8.12605E-004	10	..........a	-327.74
	2883	5.768	3.81873E-001	3.94397E-005	0.00000E+000	3.83000E-001	-8.79272E-004	10	..........a	-327.74
	2914	5.83	4.12794E-001	3.86460E-005	0.00000E+000	4.14000E-001	-8.20939E-004	10	..........a	-327.74
	2945	5.892	4.43769E-001	3.73927E-005	0.00000E+000	4.45000E-001	-8.62605E-004	10	..........a	-327.74
	2976	5.954	4.74773E-001	3.60977E-005	0.00000E+000	4.76000E-001	-9.20939E-004	10	..........a	-327.74
	3000	6.002	4.98819E-001	3.53875E-005	0.00000E+000	5.00000E-001	-8.29272E-004	10	..........a	-327.74
CURVE2	TABLE
	Pt	T	Vf	Im	Vu	Sig	Ach	IERange	Over	Temp
	#	s	V vs. Ref.	A	V	V	V	#	bits	deg C
	3001	6.004	4.98827E-001	3.50116E-005	0.00000E+000	5.00000E-001	-8.79272E-004	10	..........a	-327.74

File: 1mkcl-18btmapaq-nitrogen-600mvpers.DTA
EXPLAIN
TAG	CV
TITLE	LABEL	Cyclic Voltammetry	Test &Identifier
DATE	LABEL	1/31/2023	Date
TIME	LABEL	15:21:41	Time
NOTES	NOTES	1	&Notes...

PSTAT	PSTAT	REF3000-21108	Potentiostat
VINIT	POTEN	5.00000E-001	F	Initial &E (V)
VLIMIT1	POTEN	-1.00000E+000	F	Scan Limit &1 (V)
VLIMIT2	POTEN	5.00000E-001	F	Scan Limit &2 (V)
VFINAL	POTEN	5.00000E-001	F	Final &E (V)
SCANRATE	QUANT	5.99999E+002	&Scan Rate (mV/s)
STEPSIZE	QUANT	1.00000E+000	St&ep Size (mV)
CYCLES	IQUANT	1	C&ycles (#)
IMODE	SELECTOR	1	I/E Range &Mode
IRANGE	QUANT	1.00000E+001	&Max Current (mA)
AREA	QUANT	1.00000E+000	Electrode &Area (cm^2)
ELECTRODETYPE	SELECTOR	0	Electrode Type
STRIPPING	TOGGLE	F	Used for Stripping
POLARITY	TOGGLE	F	Signal Polarity
CONDIT	TWOPARAM	F	1.50000E+001	0.00000E+000	Conditionin&g	Time(s)	E(V)
DELAY	TWOPARAM	F	5.00000E+000	0.00000E+000	Init. De&lay	Time(s)	Stab.(mV/s)
EQDELAY	QUANT	0.00000E+000	Equil. &Time (s)
IRCOMP	SELECTOR	0	IRCom&p
PFCOR	QUANT	5.00000E+001	PF Corr. (ohm)
SAMPLINGMODE	SELECTOR	1	Sampling &Mode
EOC	QUANT	0	Open Circuit (V)
PSTATMODEL	IQUANT	5	Pstat Model
PSTATSECTION	LABEL	REF3000-21108	Pstat Section
PSTATSERIALNO	LABEL	21108	Pstat Serial Number
CTRLMODE	IQUANT	1	Control Mode
ELECTROMETER	IQUANT	0	RE=0 or CS=1
IESTAB	IQUANT	2	I/E Stability
CASPEED	IQUANT	4	Control Amp Speed
CONVENTION	IQUANT	1	Current Convention
ICHRANGE	IQUANT	2	Ich Range
ICHRANGEMODE	TOGGLE	F	Ich Auto Range
ICHOFFSETENABLE	TOGGLE	F	Ich Offset Enable
ICHOFFSET	QUANT	0	Ich Offset (V)
ICHFILTER	IQUANT	1	Ich Filter
VCHRANGE	IQUANT	2	Vch Range
VCHRANGEMODE	TOGGLE	F	Vch Auto Range
VCHOFFSETENABLE	TOGGLE	F	Vch Offset Enable
VCHOFFSET	QUANT	0	Vch Offset (V)
VCHFILTER	IQUANT	1	Vch Filter
ACHRANGE	IQUANT	2	Ach Range
ACHOFFSETENABLE	TOGGLE	F	Ach Offset Enable
ACHOFFSET	QUANT	0	Ach Offset (V)
ACHFILTER	IQUANT	0	Ach Filter
IERANGELOWERLIMIT	IQUANT	2	I/E Range Lower Limit
IERANGEMODE	TOGGLE	F	I/E AutoRange
IERANGE	IQUANT	10	I/E Range
POSFEEDENABLE	TOGGLE	F	Positive Feedback IR Comp
POSFEEDRESISTANCE	QUANT	0	Positive Feedback Resistance (ohm)
ACHSELECT	IQUANT	0	Ach Select
SENSECABLEID	IQUANT	14	Sense Cable ID
PWRCABLEID	IQUANT	7	Power Cable ID
DCCALDATE	LABEL	11/9/2022	DC Calibration Date
ACCALDATE	LABEL	11/9/2022	AC Calibration Date
THERMOSELECT	IQUANT	1	Thermo Select
FRAMEWORKVERSION	LABEL	7.8.2	Framework Version
INSTRUMENTVERSION	LABEL	4.40	Instrument Version
COMPLIANCEVOLTAGE	IQUANT	0	Compliance Voltage
CURVE1	TABLE
	Pt	T	Vf	Im	Vu	Sig	Ach	IERange	Over	Temp
	#	s	V vs. Ref.	A	V	V	V	#	bits	deg C
	0	0.001667	4.98736E-001	1.73432E-005	0.00000E+000	5.00000E-001	-8.39272E-004	10	..........a	-327.74
	32	0.055	4.66761E-001	3.25679E-006	0.00000E+000	4.68000E-001	-8.49272E-004	10	..........a	-327.74
	64	0.108333	4.34776E-001	-1.45540E-006	0.00000E+000	4.36000E-001	-8.19272E-004	10	..........a	-327.74
	96	0.161667	4.02751E-001	-4.56344E-006	0.00000E+000	4.04000E-001	-7.99272E-004	10	..........a	-327.74
	128	0.215	3.70776E-001	-5.61616E-006	0.00000E+000	3.72000E-001	-7.99272E-004	10	..........a	-327.74
	160	0.268333	3.38761E-001	-7.97226E-006	0.00000E+000	3.40000E-001	-8.49272E-004	10	..........a	-327.74
	192	0.321667	3.06806E-001	-8.07252E-006	0.00000E+000	3.08000E-001	-7.49272E-004	10	..........a	-327.74
	224	0.375	2.74816E-001	-8.02239E-006	0.00000E+000	2.76000E-001	-7.99272E-004	10	..........a	-327.74
	256	0.428333	2.42826E-001	-8.37330E-006	0.00000E+000	2.44000E-001	-7.99272E-004	10	..........a	-327.74
	288	0.481667	2.10836E-001	-9.12524E-006	0.00000E+000	2.12000E-001	-7.79272E-004	10	..........a	-327.74
	320	0.535	1.78826E-001	-8.97485E-006	0.00000E+000	1.80000E-001	-7.49272E-004	10	..........a	-327.74
	352	0.588333	1.46876E-001	-9.52628E-006	0.00000E+000	1.48000E-001	-7.99272E-004	10	..........a	-327.74
	384	0.641667	1.14916E-001	-1.00276E-005	0.00000E+000	1.16000E-001	-7.89272E-004	10	..........a	-327.74
	416	0.695	8.29010E-002	-9.17537E-006	0.00000E+000	8.40000E-002	-8.19272E-004	10	..........a	-327.74
	448	0.748333	5.09210E-002	-1.00276E-005	0.00000E+000	5.20000E-002	-7.89272E-004	10	..........a	-327.74
	480	0.801667	1.89410E-002	-9.82706E-006	0.00000E+000	2.00000E-002	-8.09272E-004	10	..........a	-327.74
	512	0.855	-1.30440E-002	-9.42602E-006	0.00000E+000	-1.20000E-002	-7.99272E-004	10	..........a	-327.74
	544	0.908333	-4.50790E-002	-9.72680E-006	0.00000E+000	-4.40000E-002	-7.89272E-004	10	..........a	-327.74
	576	0.96167	-7.70290E-002	-1.03284E-005	0.00000E+000	-7.60000E-002	-7.29272E-004	10	..........a	-327.74
	608	1.015	-1.09074E-001	-1.07294E-005	0.00000E+000	-1.08000E-001	-7.79272E-004	10	..........a	-327.74
	640	1.06833	-1.40994E-001	-1.01278E-005	0.00000E+000	-1.40000E-001	-7.89272E-004	10	..........a	-327.74
	672	1.12167	-1.73074E-001	-1.11806E-005	0.00000E+000	-1.72000E-001	-8.09272E-004	10	..........a	-327.74
	704	1.175	-2.05049E-001	-1.10302E-005	0.00000E+000	-2.04000E-001	-8.29272E-004	10	..........a	-327.74
	736	1.22833	-2.36959E-001	-1.33863E-005	0.00000E+000	-2.36000E-001	-8.09272E-004	10	..........a	-327.74
	768	1.28167	-2.68944E-001	-1.45894E-005	0.00000E+000	-2.68000E-001	-7.49272E-004	10	..........a	-327.74
	800	1.335	-3.00979E-001	-1.76974E-005	0.00000E+000	-3.00000E-001	-7.79272E-004	10	..........a	-327.74
	832	1.38833	-3.32949E-001	-2.20086E-005	0.00000E+000	-3.32000E-001	-7.89272E-004	10	..........a	-327.74
	864	1.44167	-3.64994E-001	-2.72221E-005	0.00000E+000	-3.64000E-001	-8.09272E-004	10	..........a	-327.74
	896	1.495	-3.96914E-001	-3.22350E-005	0.00000E+000	-3.96000E-001	-7.59272E-004	10	..........a	-327.74
	928	1.54833	-4.28904E-001	-4.23111E-005	0.00000E+000	-4.28000E-001	-7.59272E-004	10	..........a	-327.74
	960	1.60167	-4.60889E-001	-8.22645E-005	0.00000E+000	-4.60000E-001	-8.19272E-004	10	..........a	-327.74
	992	1.655	-4.92874E-001	-2.00069E-004	0.00000E+000	-4.92000E-001	-7.79272E-004	10	..........a	-327.74
	1024	1.70833	-5.24839E-001	-4.42346E-004	0.00000E+000	-5.24000E-001	-7.69272E-004	10	..........a	-327.74
	1056	1.76167	-5.56889E-001	-6.59408E-004	0.00000E+000	-5.56000E-001	-7.99272E-004	10	..........a	-327.74
	1088	1.815	-5.88844E-001	-5.98350E-004	0.00000E+000	-5.88000E-001	-7.69272E-004	10	..........a	-327.74
	1120	1.86833	-6.20829E-001	-4.65957E-004	0.00000E+000	-6.20000E-001	-7.69272E-004	10	..........a	-327.74
	1152	1.92167	-6.52799E-001	-3.91665E-004	0.00000E+000	-6.52000E-001	-7.39272E-004	10	..........a	-327.74
	1184	1.975	-6.84834E-001	-3.45846E-004	0.00000E+000	-6.84000E-001	-8.29272E-004	10	..........a	-327.74
	1216	2.02833	-7.16819E-001	-3.12610E-004	0.00000E+000	-7.16000E-001	-7.79272E-004	10	..........a	-327.74
	1248	2.08167	-7.48784E-001	-2.86794E-004	0.00000E+000	-7.48000E-001	-8.39272E-004	10	..........a	-327.74
	1280	2.135	-7.80744E-001	-2.65789E-004	0.00000E+000	-7.80000E-001	-7.89272E-004	10	..........a	-327.74
	1312	2.18833	-8.12759E-001	-2.50450E-004	0.00000E+000	-8.12000E-001	-7.89272E-004	10	..........a	-327.74
	1344	2.24167	-8.44749E-001	-2.36915E-004	0.00000E+000	-8.44000E-001	-7.99272E-004	10	..........a	-327.74
	1376	2.295	-8.76724E-001	-2.26939E-004	0.00000E+000	-8.76000E-001	-7.69272E-004	10	..........a	-327.74
	1408	2.34833	-9.08659E-001	-2.16712E-004	0.00000E+000	-9.08000E-001	-7.89272E-004	10	..........a	-327.74
	1440	2.40167	-9.40669E-001	-2.08742E-004	0.00000E+000	-9.40000E-001	-8.19272E-004	10	..........a	-327.74
[...]
	1984	3.30833	-5.16924E-001	3.64742E-004	0.00000E+000	-5.16000E-001	-8.39272E-004	10	..........a	-327.74
	2016	3.36167	-4.84929E-001	4.71769E-004	0.00000E+000	-4.84000E-001	-8.19272E-004	10	..........a	-327.74
	2048	3.415	-4.52894E-001	3.72663E-004	0.00000E+000	-4.52000E-001	-8.59272E-004	10	..........a	-327.74
	2080	3.46833	-4.20994E-001	2.79271E-004	0.00000E+000	-4.20000E-001	-8.09272E-004	10	..........a	-327.74
	2112	3.52167	-3.88894E-001	2.21371E-004	0.00000E+000	-3.88000E-001	-7.19272E-004	10	..........a	-327.74
	2144	3.575	-3.57019E-001	1.83924E-004	0.00000E+000	-3.56000E-001	-7.79272E-004	10	..........a	-327.74
	2176	3.62833	-3.24944E-001	1.57656E-004	0.00000E+000	-3.24000E-001	-7.19272E-004	10	..........a	-327.74
	2208	3.68167	-2.92984E-001	1.37805E-004	0.00000E+000	-2.92000E-001	-7.79272E-004	10	..........a	-327.74
	2240	3.735	-2.60944E-001	1.23518E-004	0.00000E+000	-2.60000E-001	-8.49272E-004	10	..........a	-327.74
	2272	3.78833	-2.28994E-001	1.11687E-004	0.00000E+000	-2.28000E-001	-8.59272E-004	10	..........a	-327.74
	2304	3.84167	-1.97004E-001	1.01862E-004	0.00000E+000	-1.96000E-001	-7.99272E-004	10	..........a	-327.74
	2336	3.895	-1.65044E-001	9.44928E-005	0.00000E+000	-1.64000E-001	-7.99272E-004	10	..........a	-327.74
	2368	3.94833	-1.33059E-001	8.79760E-005	0.00000E+000	-1.32000E-001	-7.89272E-004	10	..........a	-327.74
	2400	4.00167	-1.01009E-001	8.14591E-005	0.00000E+000	-1.00000E-001	-8.19272E-004	10	..........a	-327.74
	2432	4.055	-6.90940E-002	7.72984E-005	0.00000E+000	-6.80000E-002	-8.19272E-004	10	..........a	-327.74
	2464	4.10833	-3.70940E-002	7.27366E-005	0.00000E+000	-3.60000E-002	-8.69272E-004	10	..........a	-327.74
	2496	4.16167	-5.06400E-003	7.04306E-005	0.00000E+000	-4.00001E-003	-7.89272E-004	10	..........a	-327.74
	2528	4.215	2.69460E-002	6.71722E-005	0.00000E+000	2.80000E-002	-8.39272E-004	10	..........a	-327.74
	2560	4.26833	5.89010E-002	6.50667E-005	0.00000E+000	6.00000E-002	-8.79272E-004	10	..........a	-327.74
	2592	4.32167	9.08860E-002	6.09059E-005	0.00000E+000	9.20000E-002	-8.29272E-004	10	..........a	-327.74
	2624	4.375	1.22936E-001	5.70961E-005	0.00000E+000	1.24000E-001	-8.19272E-004	10	..........a	-327.74
	2656	4.42833	1.54921E-001	5.35369E-005	0.00000E+000	1.56000E-001	-8.09272E-004	10	..........a	-327.74
	2688	4.48167	1.86851E-001	5.08299E-005	0.00000E+000	1.88000E-001	-8.19272E-004	10	..........a	-327.74
	2720	4.535	2.18876E-001	4.76717E-005	0.00000E+000	2.20000E-001	-7.79272E-004	10	..........a	-327.74
	2752	4.58833	2.50826E-001	4.57166E-005	0.00000E+000	2.52000E-001	-7.79272E-004	10	..........a	-327.74
	2784	4.64167	2.82826E-001	4.34608E-005	0.00000E+000	2.84000E-001	-7.89272E-004	10	..........a	-327.74
	2816	4.695	3.14791E-001	4.07538E-005	0.00000E+000	3.16000E-001	-8.09272E-004	10	..........a	-327.74
	2848	4.74833	3.46811E-001	3.97011E-005	0.00000E+000	3.48000E-001	-7.89272E-004	10	..........a	-327.74
	2880	4.80167	3.78781E-001	3.92499E-005	0.00000E+000	3.80000E-001	-7.99272E-004	10	..........a	-327.74
	2912	4.855	4.10791E-001	3.80969E-005	0.00000E+000	4.12000E-001	-8.59272E-004	10	..........a	-327.74
	2944	4.90833	4.42761E-001	3.70943E-005	0.00000E+000	4.44000E-001	-7.89272E-004	10	..........a	-327.74
	2976	4.96167	4.74696E-001	3.46881E-005	0.00000E+000	4.76000E-001	-8.49272E-004	10	..........a	-327.74
	3000	5.00167	4.98731E-001	3.43372E-005	0.00000E+000	5.00000E-001	-8.49272E-004	10	..........a	-327.74
CURVE2	TABLE
	Pt	T	Vf	Im	Vu	Sig	Ach	IERange	Over	Temp
	#	s	V vs. Ref.	A	V	V	V	#	bits	deg C
	3001	5.00333	4.98771E-001	3.25827E-005	0.00000E+000	5.00000E-001	-8.19272E-004	10	..........a	-327.74