Folder: 2024-09-QuCO2-NCE/data/02-SI/Figures_S9_S11_RDE/18btmapaq-rde (part 10)

File: 1mkcl-18btmapaq-nitrogen-4000mvpers.DTA
EXPLAIN
TAG	CV
TITLE	LABEL	Cyclic Voltammetry	Test &Identifier
DATE	LABEL	1/31/2023	Date
TIME	LABEL	15:23:05	Time
NOTES	NOTES	1	&Notes...

PSTAT	PSTAT	REF3000-21108	Potentiostat
VINIT	POTEN	5.00000E-001	F	Initial &E (V)
VLIMIT1	POTEN	-1.00000E+000	F	Scan Limit &1 (V)
VLIMIT2	POTEN	5.00000E-001	F	Scan Limit &2 (V)
VFINAL	POTEN	5.00000E-001	F	Final &E (V)
SCANRATE	QUANT	3.99999E+003	&Scan Rate (mV/s)
STEPSIZE	QUANT	1.00000E+000	St&ep Size (mV)
CYCLES	IQUANT	1	C&ycles (#)
IMODE	SELECTOR	1	I/E Range &Mode
IRANGE	QUANT	1.00000E+001	&Max Current (mA)
AREA	QUANT	1.00000E+000	Electrode &Area (cm^2)
ELECTRODETYPE	SELECTOR	0	Electrode Type
STRIPPING	TOGGLE	F	Used for Stripping
POLARITY	TOGGLE	F	Signal Polarity
CONDIT	TWOPARAM	F	1.50000E+001	0.00000E+000	Conditionin&g	Time(s)	E(V)
DELAY	TWOPARAM	F	5.00000E+000	0.00000E+000	Init. De&lay	Time(s)	Stab.(mV/s)
EQDELAY	QUANT	0.00000E+000	Equil. &Time (s)
IRCOMP	SELECTOR	0	IRCom&p
PFCOR	QUANT	5.00000E+001	PF Corr. (ohm)
SAMPLINGMODE	SELECTOR	1	Sampling &Mode
EOC	QUANT	0	Open Circuit (V)
PSTATMODEL	IQUANT	5	Pstat Model
PSTATSECTION	LABEL	REF3000-21108	Pstat Section
PSTATSERIALNO	LABEL	21108	Pstat Serial Number
CTRLMODE	IQUANT	1	Control Mode
ELECTROMETER	IQUANT	0	RE=0 or CS=1
IESTAB	IQUANT	2	I/E Stability
CASPEED	IQUANT	4	Control Amp Speed
CONVENTION	IQUANT	1	Current Convention
ICHRANGE	IQUANT	2	Ich Range
ICHRANGEMODE	TOGGLE	F	Ich Auto Range
ICHOFFSETENABLE	TOGGLE	F	Ich Offset Enable
ICHOFFSET	QUANT	0	Ich Offset (V)
ICHFILTER	IQUANT	1	Ich Filter
VCHRANGE	IQUANT	2	Vch Range
VCHRANGEMODE	TOGGLE	F	Vch Auto Range
VCHOFFSETENABLE	TOGGLE	F	Vch Offset Enable
VCHOFFSET	QUANT	0	Vch Offset (V)
VCHFILTER	IQUANT	1	Vch Filter
ACHRANGE	IQUANT	2	Ach Range
ACHOFFSETENABLE	TOGGLE	F	Ach Offset Enable
ACHOFFSET	QUANT	0	Ach Offset (V)
ACHFILTER	IQUANT	0	Ach Filter
IERANGELOWERLIMIT	IQUANT	2	I/E Range Lower Limit
IERANGEMODE	TOGGLE	F	I/E AutoRange
IERANGE	IQUANT	10	I/E Range
POSFEEDENABLE	TOGGLE	F	Positive Feedback IR Comp
POSFEEDRESISTANCE	QUANT	0	Positive Feedback Resistance (ohm)
ACHSELECT	IQUANT	0	Ach Select
SENSECABLEID	IQUANT	14	Sense Cable ID
PWRCABLEID	IQUANT	7	Power Cable ID
DCCALDATE	LABEL	11/9/2022	DC Calibration Date
ACCALDATE	LABEL	11/9/2022	AC Calibration Date
THERMOSELECT	IQUANT	1	Thermo Select
FRAMEWORKVERSION	LABEL	7.8.2	Framework Version
INSTRUMENTVERSION	LABEL	4.40	Instrument Version
COMPLIANCEVOLTAGE	IQUANT	0	Compliance Voltage
CURVE1	TABLE
	Pt	T	Vf	Im	Vu	Sig	Ach	IERange	Over	Temp
	#	s	V vs. Ref.	A	V	V	V	#	bits	deg C
	0	0.00025	4.98758E-001	2.81211E-005	0.00000E+000	5.00000E-001	-6.79272E-004	10	..........a	-327.74
	32	0.00825	4.66858E-001	-6.19904E-007	0.00000E+000	4.68000E-001	-8.29272E-004	10	..........a	-327.74
	64	0.01625	4.35024E-001	-5.96707E-006	0.00000E+000	4.36000E-001	-7.29272E-004	10	..........a	-327.74
	96	0.02425	4.03024E-001	-1.33194E-005	0.00000E+000	4.04000E-001	-6.79272E-004	10	..........a	-327.74
	128	0.03225	3.70824E-001	-2.10060E-005	0.00000E+000	3.72000E-001	-6.79272E-004	10	..........a	-327.74
	160	0.04025	3.38891E-001	-1.96692E-005	0.00000E+000	3.40000E-001	-7.79272E-004	10	..........a	-327.74
	192	0.04825	3.06891E-001	-2.13402E-005	0.00000E+000	3.08000E-001	-9.29272E-004	10	..........a	-327.74
	224	0.05625	2.75124E-001	-2.36796E-005	0.00000E+000	2.76000E-001	-7.79272E-004	10	..........a	-327.74
	256	0.06425	2.42891E-001	-2.40138E-005	0.00000E+000	2.44000E-001	-8.29272E-004	10	..........a	-327.74
	288	0.07225	2.10891E-001	-2.90267E-005	0.00000E+000	2.12000E-001	-8.79272E-004	10	..........a	-327.74
	320	0.08025	1.78891E-001	-2.86925E-005	0.00000E+000	1.80000E-001	-7.79272E-004	10	..........a	-327.74
	352	0.08825	1.47024E-001	-2.96951E-005	0.00000E+000	1.48000E-001	-7.79272E-004	10	..........a	-327.74
	384	0.09625	1.14891E-001	-3.00293E-005	0.00000E+000	1.16000E-001	-7.79272E-004	10	..........a	-327.74
	416	0.10425	8.28577E-002	-2.93609E-005	0.00000E+000	8.40000E-002	-7.79272E-004	10	..........a	-327.74
	448	0.11225	5.11243E-002	-3.43739E-005	0.00000E+000	5.20000E-002	-9.29272E-004	10	..........a	-327.74
	480	0.12025	1.89243E-002	-3.03635E-005	0.00000E+000	2.00000E-002	-7.79272E-004	10	..........a	-327.74
	512	0.12825	-1.30090E-002	-3.23687E-005	0.00000E+000	-1.20000E-002	-7.79272E-004	10	..........a	-327.74
	544	0.13625	-4.51090E-002	-3.33713E-005	0.00000E+000	-4.40000E-002	-9.29272E-004	10	..........a	-327.74
	576	0.14425	-7.69757E-002	-3.30371E-005	0.00000E+000	-7.60000E-002	-8.79272E-004	10	..........a	-327.74
	608	0.15225	-1.08842E-001	-3.47081E-005	0.00000E+000	-1.08000E-001	-9.29272E-004	10	..........a	-327.74
	640	0.16025	-1.40876E-001	-3.50423E-005	0.00000E+000	-1.40000E-001	-7.79272E-004	10	..........a	-327.74
	672	0.16825	-1.72842E-001	-3.47081E-005	0.00000E+000	-1.72000E-001	-7.29272E-004	10	..........a	-327.74
	704	0.17625	-2.04842E-001	-3.43739E-005	0.00000E+000	-2.04000E-001	-7.79272E-004	10	..........a	-327.74
	736	0.18425	-2.36742E-001	-3.70475E-005	0.00000E+000	-2.36000E-001	-6.29272E-004	10	..........a	-327.74
	768	0.19225	-2.68909E-001	-4.00553E-005	0.00000E+000	-2.68000E-001	-9.29272E-004	10	..........a	-327.74
	800	0.20025	-3.00842E-001	-4.27289E-005	0.00000E+000	-3.00000E-001	-8.79272E-004	10	..........a	-327.74
	832	0.20825	-3.32709E-001	-5.00812E-005	0.00000E+000	-3.32000E-001	-8.29272E-004	10	..........a	-327.74
	864	0.21625	-3.64876E-001	-6.24465E-005	0.00000E+000	-3.64000E-001	-8.79272E-004	10	..........a	-327.74
	896	0.22425	-3.96776E-001	-7.61487E-005	0.00000E+000	-3.96000E-001	-8.29272E-004	10	..........a	-327.74
	928	0.23225	-4.28909E-001	-1.23939E-004	0.00000E+000	-4.28000E-001	-8.79272E-004	10	..........a	-327.74
	960	0.24025	-4.60709E-001	-2.36564E-004	0.00000E+000	-4.60000E-001	-7.79272E-004	10	..........a	-327.74
	992	0.24825	-4.92876E-001	-4.83536E-004	0.00000E+000	-4.92000E-001	-8.79272E-004	10	..........a	-327.74
	1024	0.25625	-5.24776E-001	-9.19999E-004	0.00000E+000	-5.24000E-001	-7.79272E-004	10	..........a	-327.74
	1056	0.26425	-5.56709E-001	-1.39690E-003	0.00000E+000	-5.56000E-001	-7.29272E-004	10	..........a	-327.74
	1088	0.27225	-5.88709E-001	-1.70703E-003	0.00000E+000	-5.88000E-001	-8.29272E-004	10	..........a	-327.74
	1120	0.28025	-6.20709E-001	-1.59307E-003	0.00000E+000	-6.20000E-001	-7.79272E-004	10	..........a	-327.74
	1152	0.28825	-6.52709E-001	-1.30800E-003	0.00000E+000	-6.52000E-001	-8.29272E-004	10	..........a	-327.74
	1184	0.29625	-6.84742E-001	-1.13455E-003	0.00000E+000	-6.84000E-001	-9.29272E-004	10	..........a	-327.74
	1216	0.30425	-7.16709E-001	-1.01424E-003	0.00000E+000	-7.16000E-001	-6.29272E-004	10	..........a	-327.74
	1248	0.31225	-7.48709E-001	-9.18996E-004	0.00000E+000	-7.48000E-001	-9.29272E-004	10	..........a	-327.74
	1280	0.32025	-7.80609E-001	-8.48146E-004	0.00000E+000	-7.80000E-001	-6.79272E-004	10	..........a	-327.74
	1312	0.32825	-8.12709E-001	-7.86319E-004	0.00000E+000	-8.12000E-001	-7.29272E-004	10	..........a	-327.74
	1344	0.33625	-8.44709E-001	-7.33516E-004	0.00000E+000	-8.44000E-001	-8.29272E-004	10	..........a	-327.74
	1376	0.34425	-8.76709E-001	-6.94749E-004	0.00000E+000	-8.76000E-001	-7.79272E-004	10	..........a	-327.74
	1408	0.35225	-9.08442E-001	-6.56985E-004	0.00000E+000	-9.08000E-001	-9.29272E-004	10	..........a	-327.74
	1440	0.36025	-9.40709E-001	-6.23231E-004	0.00000E+000	-9.40000E-001	-7.79272E-004	10	..........a	-327.74
[...]
	1984	0.49625	-5.16709E-001	8.21507E-004	0.00000E+000	-5.16000E-001	-9.29272E-004	10	..........a	-327.74
	2016	0.50425	-4.84709E-001	1.28938E-003	0.00000E+000	-4.84000E-001	-9.29272E-004	10	..........a	-327.74
	2048	0.51225	-4.52742E-001	1.19882E-003	0.00000E+000	-4.52000E-001	-9.29272E-004	10	..........a	-327.74
	2080	0.52025	-4.20842E-001	9.19093E-004	0.00000E+000	-4.20000E-001	-8.29272E-004	10	..........a	-327.74
	2112	0.52825	-3.88842E-001	7.31608E-004	0.00000E+000	-3.88000E-001	-7.79272E-004	10	..........a	-327.74
	2144	0.53625	-3.56876E-001	6.15307E-004	0.00000E+000	-3.56000E-001	-7.79272E-004	10	..........a	-327.74
	2176	0.54425	-3.24942E-001	5.38776E-004	0.00000E+000	-3.24000E-001	-8.29272E-004	10	..........a	-327.74
	2208	0.55225	-2.92976E-001	4.85972E-004	0.00000E+000	-2.92000E-001	-7.29272E-004	10	..........a	-327.74
	2240	0.56025	-2.60742E-001	4.39185E-004	0.00000E+000	-2.60000E-001	-7.29272E-004	10	..........a	-327.74
	2272	0.56825	-2.28776E-001	4.09775E-004	0.00000E+000	-2.28000E-001	-7.29272E-004	10	..........a	-327.74
	2304	0.57625	-1.96909E-001	3.83374E-004	0.00000E+000	-1.96000E-001	-7.29272E-004	10	..........a	-327.74
	2336	0.58425	-1.64876E-001	3.58643E-004	0.00000E+000	-1.64000E-001	-8.79272E-004	10	..........a	-327.74
	2368	0.59225	-1.32976E-001	3.37923E-004	0.00000E+000	-1.32000E-001	-6.79272E-004	10	..........a	-327.74
	2400	0.60025	-1.00976E-001	3.21547E-004	0.00000E+000	-1.00000E-001	-8.29272E-004	10	..........a	-327.74
	2432	0.60825	-6.90090E-002	3.06508E-004	0.00000E+000	-6.80000E-002	-8.29272E-004	10	..........a	-327.74
	2464	0.61625	-3.70090E-002	2.93140E-004	0.00000E+000	-3.60000E-002	-8.79272E-004	10	..........a	-327.74
	2496	0.62425	-5.00900E-003	2.76430E-004	0.00000E+000	-4.00001E-003	-8.79272E-004	10	..........a	-327.74
	2528	0.63225	2.68910E-002	2.70415E-004	0.00000E+000	2.80000E-002	-9.29272E-004	10	..........a	-327.74
	2560	0.64025	5.89910E-002	2.59386E-004	0.00000E+000	6.00000E-002	-9.29272E-004	10	..........a	-327.74
	2592	0.64825	9.11577E-002	2.49360E-004	0.00000E+000	9.20000E-002	-8.29272E-004	10	..........a	-327.74
	2624	0.65625	1.23024E-001	2.40671E-004	0.00000E+000	1.24000E-001	-7.79272E-004	10	..........a	-327.74
	2656	0.66425	1.55024E-001	2.30645E-004	0.00000E+000	1.56000E-001	-9.29272E-004	10	..........a	-327.74
	2688	0.67225	1.86991E-001	2.21288E-004	0.00000E+000	1.88000E-001	-7.29272E-004	10	..........a	-327.74
	2720	0.68025	2.18858E-001	2.13601E-004	0.00000E+000	2.20000E-001	-7.79272E-004	10	..........a	-327.74
	2752	0.68825	2.50891E-001	2.03909E-004	0.00000E+000	2.52000E-001	-7.29272E-004	10	..........a	-327.74
	2784	0.69625	2.82891E-001	2.00567E-004	0.00000E+000	2.84000E-001	-8.29272E-004	10	..........a	-327.74
	2816	0.70425	3.14891E-001	1.94886E-004	0.00000E+000	3.16000E-001	-8.79272E-004	10	..........a	-327.74
	2848	0.71225	3.46991E-001	1.88870E-004	0.00000E+000	3.48000E-001	-8.29272E-004	10	..........a	-327.74
	2880	0.72025	3.79024E-001	1.84192E-004	0.00000E+000	3.80000E-001	-8.79272E-004	10	..........a	-327.74
	2912	0.72825	4.10891E-001	1.79847E-004	0.00000E+000	4.12000E-001	-8.29272E-004	10	..........a	-327.74
	2944	0.73625	4.42991E-001	1.75837E-004	0.00000E+000	4.44000E-001	-7.29272E-004	10	..........a	-327.74
	2976	0.74425	4.75024E-001	1.70824E-004	0.00000E+000	4.76000E-001	-8.29272E-004	10	..........a	-327.74
	3000	0.75025	4.98791E-001	1.69487E-004	0.00000E+000	5.00000E-001	-9.29272E-004	10	..........a	-327.74
CURVE2	TABLE
	Pt	T	Vf	Im	Vu	Sig	Ach	IERange	Over	Temp
	#	s	V vs. Ref.	A	V	V	V	#	bits	deg C
	3001	0.7505	4.98858E-001	1.64140E-004	0.00000E+000	5.00000E-001	-6.29272E-004	10	..........a	-327.74

File: 1mkcl-18btmapaq-nitrogen-5000mvpers.DTA
EXPLAIN
TAG	CV
TITLE	LABEL	Cyclic Voltammetry	Test &Identifier
DATE	LABEL	1/31/2023	Date
TIME	LABEL	15:23:14	Time
NOTES	NOTES	1	&Notes...

PSTAT	PSTAT	REF3000-21108	Potentiostat
VINIT	POTEN	5.00000E-001	F	Initial &E (V)
VLIMIT1	POTEN	-1.00000E+000	F	Scan Limit &1 (V)
VLIMIT2	POTEN	5.00000E-001	F	Scan Limit &2 (V)
VFINAL	POTEN	5.00000E-001	F	Final &E (V)
SCANRATE	QUANT	4.99999E+003	&Scan Rate (mV/s)
STEPSIZE	QUANT	1.00000E+000	St&ep Size (mV)
CYCLES	IQUANT	1	C&ycles (#)
IMODE	SELECTOR	1	I/E Range &Mode
IRANGE	QUANT	1.00000E+001	&Max Current (mA)
AREA	QUANT	1.00000E+000	Electrode &Area (cm^2)
ELECTRODETYPE	SELECTOR	0	Electrode Type
STRIPPING	TOGGLE	F	Used for Stripping
POLARITY	TOGGLE	F	Signal Polarity
CONDIT	TWOPARAM	F	1.50000E+001	0.00000E+000	Conditionin&g	Time(s)	E(V)
DELAY	TWOPARAM	F	5.00000E+000	0.00000E+000	Init. De&lay	Time(s)	Stab.(mV/s)
EQDELAY	QUANT	0.00000E+000	Equil. &Time (s)
IRCOMP	SELECTOR	0	IRCom&p
PFCOR	QUANT	5.00000E+001	PF Corr. (ohm)
SAMPLINGMODE	SELECTOR	1	Sampling &Mode
EOC	QUANT	0	Open Circuit (V)
PSTATMODEL	IQUANT	5	Pstat Model
PSTATSECTION	LABEL	REF3000-21108	Pstat Section
PSTATSERIALNO	LABEL	21108	Pstat Serial Number
CTRLMODE	IQUANT	1	Control Mode
ELECTROMETER	IQUANT	0	RE=0 or CS=1
IESTAB	IQUANT	2	I/E Stability
CASPEED	IQUANT	4	Control Amp Speed
CONVENTION	IQUANT	1	Current Convention
ICHRANGE	IQUANT	2	Ich Range
ICHRANGEMODE	TOGGLE	F	Ich Auto Range
ICHOFFSETENABLE	TOGGLE	F	Ich Offset Enable
ICHOFFSET	QUANT	0	Ich Offset (V)
ICHFILTER	IQUANT	1	Ich Filter
VCHRANGE	IQUANT	2	Vch Range
VCHRANGEMODE	TOGGLE	F	Vch Auto Range
VCHOFFSETENABLE	TOGGLE	F	Vch Offset Enable
VCHOFFSET	QUANT	0	Vch Offset (V)
VCHFILTER	IQUANT	1	Vch Filter
ACHRANGE	IQUANT	2	Ach Range
ACHOFFSETENABLE	TOGGLE	F	Ach Offset Enable
ACHOFFSET	QUANT	0	Ach Offset (V)
ACHFILTER	IQUANT	0	Ach Filter
IERANGELOWERLIMIT	IQUANT	2	I/E Range Lower Limit
IERANGEMODE	TOGGLE	F	I/E AutoRange
IERANGE	IQUANT	10	I/E Range
POSFEEDENABLE	TOGGLE	F	Positive Feedback IR Comp
POSFEEDRESISTANCE	QUANT	0	Positive Feedback Resistance (ohm)
ACHSELECT	IQUANT	0	Ach Select
SENSECABLEID	IQUANT	14	Sense Cable ID
PWRCABLEID	IQUANT	7	Power Cable ID
DCCALDATE	LABEL	11/9/2022	DC Calibration Date
ACCALDATE	LABEL	11/9/2022	AC Calibration Date
THERMOSELECT	IQUANT	1	Thermo Select
FRAMEWORKVERSION	LABEL	7.8.2	Framework Version
INSTRUMENTVERSION	LABEL	4.40	Instrument Version
COMPLIANCEVOLTAGE	IQUANT	0	Compliance Voltage
CURVE1	TABLE
	Pt	T	Vf	Im	Vu	Sig	Ach	IERange	Over	Temp
	#	s	V vs. Ref.	A	V	V	V	#	bits	deg C
	0	0.0002	4.98791E-001	2.71185E-005	0.00000E+000	5.00000E-001	-6.29272E-004	10	..........a	-327.74
	32	0.0066	4.66891E-001	-8.47356E-006	0.00000E+000	4.68000E-001	-6.29272E-004	10	..........a	-327.74
	64	0.013	4.34991E-001	-1.69956E-005	0.00000E+000	4.36000E-001	-8.29272E-004	10	..........a	-327.74
	96	0.0194	4.02991E-001	-2.10060E-005	0.00000E+000	4.04000E-001	-7.29272E-004	10	..........a	-327.74
	128	0.0258	3.70941E-001	-2.65202E-005	0.00000E+000	3.72000E-001	-8.29272E-004	10	..........a	-327.74
	160	0.0322	3.38891E-001	-3.30371E-005	0.00000E+000	3.40000E-001	-7.29272E-004	10	..........a	-327.74
	192	0.0386	3.06991E-001	-3.80501E-005	0.00000E+000	3.08000E-001	-9.29272E-004	10	..........a	-327.74
	224	0.045	2.74791E-001	-3.20345E-005	0.00000E+000	2.76000E-001	-5.29272E-004	10	..........a	-327.74
	256	0.0514	2.42891E-001	-3.55436E-005	0.00000E+000	2.44000E-001	-9.29272E-004	10	..........a	-327.74
	288	0.0578	2.10791E-001	-3.70475E-005	0.00000E+000	2.12000E-001	-9.29272E-004	10	..........a	-327.74
	320	0.0642	1.78991E-001	-4.15592E-005	0.00000E+000	1.80000E-001	-9.29272E-004	10	..........a	-327.74
	352	0.0706	1.47091E-001	-4.05566E-005	0.00000E+000	1.48000E-001	-9.29272E-004	10	..........a	-327.74
	384	0.077	1.14841E-001	-4.60708E-005	0.00000E+000	1.16000E-001	-9.29272E-004	10	..........a	-327.74
	416	0.0834	8.29910E-002	-4.25618E-005	0.00000E+000	8.40000E-002	-8.29272E-004	10	..........a	-327.74
	448	0.0898	5.10910E-002	-4.45669E-005	0.00000E+000	5.20000E-002	-8.29272E-004	10	..........a	-327.74
	480	0.0962	1.91910E-002	-4.25618E-005	0.00000E+000	2.00000E-002	-9.29272E-004	10	..........a	-327.74
	512	0.1026	-1.31090E-002	-4.50682E-005	0.00000E+000	-1.20000E-002	-9.29272E-004	10	..........a	-327.74
	544	0.109	-4.51590E-002	-4.40656E-005	0.00000E+000	-4.40000E-002	-9.29272E-004	10	..........a	-327.74
	576	0.1154	-7.68590E-002	-4.65721E-005	0.00000E+000	-7.60000E-002	-7.29272E-004	10	..........a	-327.74
	608	0.1218	-1.09059E-001	-4.60708E-005	0.00000E+000	-1.08000E-001	-9.29272E-004	10	..........a	-327.74
	640	0.1282	-1.41159E-001	-4.80760E-005	0.00000E+000	-1.40000E-001	-9.29272E-004	10	..........a	-327.74
	672	0.1346	-1.73159E-001	-4.60708E-005	0.00000E+000	-1.72000E-001	-9.29272E-004	10	..........a	-327.74
	704	0.141	-2.05009E-001	-4.85773E-005	0.00000E+000	-2.04000E-001	-1.12927E-003	10	..........a	-327.74
	736	0.1474	-2.37009E-001	-5.05825E-005	0.00000E+000	-2.36000E-001	-6.29272E-004	10	..........a	-327.74
	768	0.1538	-2.68959E-001	-5.20864E-005	0.00000E+000	-2.68000E-001	-1.12927E-003	10	..........a	-327.74
	800	0.1602	-3.00909E-001	-5.86033E-005	0.00000E+000	-3.00000E-001	-9.29272E-004	10	..........a	-327.74
	832	0.1666	-3.32909E-001	-6.36162E-005	0.00000E+000	-3.32000E-001	-9.29272E-004	10	..........a	-327.74
	864	0.173	-3.64859E-001	-7.51461E-005	0.00000E+000	-3.64000E-001	-6.29272E-004	10	..........a	-327.74
	896	0.1794	-3.96809E-001	-9.11876E-005	0.00000E+000	-3.96000E-001	-9.29272E-004	10	..........a	-327.74
	928	0.1858	-4.29009E-001	-1.50842E-004	0.00000E+000	-4.28000E-001	-8.29272E-004	10	..........a	-327.74
	960	0.1922	-4.60809E-001	-2.83184E-004	0.00000E+000	-4.60000E-001	-9.29272E-004	10	..........a	-327.74
	992	0.1986	-4.92809E-001	-5.49874E-004	0.00000E+000	-4.92000E-001	-9.29272E-004	10	..........a	-327.74
	1024	0.205	-5.24909E-001	-1.00956E-003	0.00000E+000	-5.24000E-001	-9.29272E-004	10	..........a	-327.74
	1056	0.2114	-5.56859E-001	-1.51938E-003	0.00000E+000	-5.56000E-001	-8.29272E-004	10	..........a	-327.74
	1088	0.2178	-5.88809E-001	-1.88232E-003	0.00000E+000	-5.88000E-001	-9.29272E-004	10	..........a	-327.74
	1120	0.2242	-6.20809E-001	-1.84924E-003	0.00000E+000	-6.20000E-001	-9.29272E-004	10	..........a	-327.74
	1152	0.2306	-6.52859E-001	-1.53292E-003	0.00000E+000	-6.52000E-001	-8.29272E-004	10	..........a	-327.74
	1184	0.237	-6.84809E-001	-1.32789E-003	0.00000E+000	-6.84000E-001	-2.29272E-004	10	..........a	-327.74
	1216	0.2434	-7.16809E-001	-1.18201E-003	0.00000E+000	-7.16000E-001	-9.29272E-004	10	..........a	-327.74
	1248	0.2498	-7.48809E-001	-1.07674E-003	0.00000E+000	-7.48000E-001	-9.29272E-004	10	..........a	-327.74
	1280	0.2562	-7.80759E-001	-9.89011E-004	0.00000E+000	-7.80000E-001	-9.29272E-004	10	..........a	-327.74
	1312	0.2626	-8.12859E-001	-9.19330E-004	0.00000E+000	-8.12000E-001	-7.29272E-004	10	..........a	-327.74
	1344	0.269	-8.44759E-001	-8.61681E-004	0.00000E+000	-8.44000E-001	-9.29272E-004	10	..........a	-327.74
	1376	0.2754	-8.76759E-001	-8.08544E-004	0.00000E+000	-8.76000E-001	-6.29272E-004	10	..........a	-327.74
	1408	0.2818	-9.08759E-001	-7.65933E-004	0.00000E+000	-9.08000E-001	-1.12927E-003	10	..........a	-327.74
	1440	0.2882	-9.40809E-001	-7.26832E-004	0.00000E+000	-9.40000E-001	-8.29272E-004	10	..........a	-327.74
[...]
	1984	0.397	-5.16809E-001	8.85840E-004	0.00000E+000	-5.16000E-001	-9.29272E-004	10	..........a	-327.74
	2016	0.4034	-4.84809E-001	1.40769E-003	0.00000E+000	-4.84000E-001	-1.02927E-003	10	..........a	-327.74
	2048	0.4098	-4.52909E-001	1.36508E-003	0.00000E+000	-4.52000E-001	-9.29272E-004	10	..........a	-327.74
	2080	0.4162	-4.20809E-001	1.05779E-003	0.00000E+000	-4.20000E-001	-1.02927E-003	10	..........a	-327.74
	2112	0.4226	-3.88909E-001	8.41225E-004	0.00000E+000	-3.88000E-001	-8.29272E-004	10	..........a	-327.74
	2144	0.429	-3.56859E-001	7.07880E-004	0.00000E+000	-3.56000E-001	-9.29272E-004	10	..........a	-327.74
	2176	0.4354	-3.25009E-001	6.20654E-004	0.00000E+000	-3.24000E-001	-9.29272E-004	10	..........a	-327.74
	2208	0.4418	-2.92759E-001	5.54984E-004	0.00000E+000	-2.92000E-001	-1.12927E-003	10	..........a	-327.74
	2240	0.4482	-2.60909E-001	5.08364E-004	0.00000E+000	-2.60000E-001	-9.29272E-004	10	..........a	-327.74
	2272	0.4546	-2.28909E-001	4.69263E-004	0.00000E+000	-2.28000E-001	-2.29272E-004	10	..........a	-327.74
	2304	0.461	-1.97109E-001	4.37681E-004	0.00000E+000	-1.96000E-001	-9.29272E-004	10	..........a	-327.74
	2336	0.4674	-1.64909E-001	4.12115E-004	0.00000E+000	-1.64000E-001	-1.02927E-003	10	..........a	-327.74
	2368	0.4738	-1.33009E-001	3.88554E-004	0.00000E+000	-1.32000E-001	-1.02927E-003	10	..........a	-327.74
	2400	0.4802	-1.01009E-001	3.69003E-004	0.00000E+000	-1.00000E-001	-9.29272E-004	10	..........a	-327.74
	2432	0.4866	-6.90590E-002	3.53964E-004	0.00000E+000	-6.80000E-002	-9.29272E-004	10	..........a	-327.74
	2464	0.493	-3.69090E-002	3.35917E-004	0.00000E+000	-3.60000E-002	-9.29272E-004	10	..........a	-327.74
	2496	0.4994	-5.00900E-003	3.27395E-004	0.00000E+000	-4.00001E-003	-6.29272E-004	10	..........a	-327.74
	2528	0.5058	2.71910E-002	3.17871E-004	0.00000E+000	2.80000E-002	-6.29272E-004	10	..........a	-327.74
	2560	0.5122	5.90910E-002	3.01829E-004	0.00000E+000	6.00000E-002	-6.29272E-004	10	..........a	-327.74
	2592	0.5186	9.10910E-002	2.90801E-004	0.00000E+000	9.20000E-002	-1.02927E-003	10	..........a	-327.74
	2624	0.525	1.22991E-001	2.74258E-004	0.00000E+000	1.24000E-001	-8.29272E-004	10	..........a	-327.74
	2656	0.5314	1.54941E-001	2.68744E-004	0.00000E+000	1.56000E-001	-6.29272E-004	10	..........a	-327.74
	2688	0.5378	1.86891E-001	2.58216E-004	0.00000E+000	1.88000E-001	-6.29272E-004	10	..........a	-327.74
	2720	0.5442	2.18991E-001	2.48692E-004	0.00000E+000	2.20000E-001	-9.29272E-004	10	..........a	-327.74
	2752	0.5506	2.50791E-001	2.38165E-004	0.00000E+000	2.52000E-001	-9.29272E-004	10	..........a	-327.74
	2784	0.557	2.82991E-001	2.34154E-004	0.00000E+000	2.84000E-001	-8.29272E-004	10	..........a	-327.74
	2816	0.5634	3.14891E-001	2.26635E-004	0.00000E+000	3.16000E-001	-8.29272E-004	10	..........a	-327.74
	2848	0.5698	3.46891E-001	2.22123E-004	0.00000E+000	3.48000E-001	-9.29272E-004	10	..........a	-327.74
	2880	0.5762	3.78941E-001	2.16609E-004	0.00000E+000	3.80000E-001	-9.29272E-004	10	..........a	-327.74
	2912	0.5826	4.10791E-001	2.09591E-004	0.00000E+000	4.12000E-001	-1.12927E-003	10	..........a	-327.74
	2944	0.589	4.42641E-001	2.02071E-004	0.00000E+000	4.44000E-001	-1.02927E-003	10	..........a	-327.74
	2976	0.5954	4.74791E-001	1.94552E-004	0.00000E+000	4.76000E-001	-9.29272E-004	10	..........a	-327.74
	3000	0.6002	4.98741E-001	1.96557E-004	0.00000E+000	5.00000E-001	-1.12927E-003	10	..........a	-327.74
CURVE2	TABLE
	Pt	T	Vf	Im	Vu	Sig	Ach	IERange	Over	Temp
	#	s	V vs. Ref.	A	V	V	V	#	bits	deg C
	3001	0.6004	4.98641E-001	1.86030E-004	0.00000E+000	5.00000E-001	-9.29272E-004	10	..........a	-327.74