Folder: 2024-09-QuCO2-NCE/data/02-SI/Figures_S9_S11_RDE/18btmapaq-rde (part 5)

File: 1mkcl-18btmapaq-nitrogen-300mvpers.DTA
EXPLAIN
TAG	CV
TITLE	LABEL	Cyclic Voltammetry	Test &Identifier
DATE	LABEL	1/31/2023	Date
TIME	LABEL	15:20:50	Time
NOTES	NOTES	1	&Notes...

PSTAT	PSTAT	REF3000-21108	Potentiostat
VINIT	POTEN	5.00000E-001	F	Initial &E (V)
VLIMIT1	POTEN	-1.00000E+000	F	Scan Limit &1 (V)
VLIMIT2	POTEN	5.00000E-001	F	Scan Limit &2 (V)
VFINAL	POTEN	5.00000E-001	F	Final &E (V)
SCANRATE	QUANT	2.99999E+002	&Scan Rate (mV/s)
STEPSIZE	QUANT	1.00000E+000	St&ep Size (mV)
CYCLES	IQUANT	1	C&ycles (#)
IMODE	SELECTOR	1	I/E Range &Mode
IRANGE	QUANT	1.00000E+001	&Max Current (mA)
AREA	QUANT	1.00000E+000	Electrode &Area (cm^2)
ELECTRODETYPE	SELECTOR	0	Electrode Type
STRIPPING	TOGGLE	F	Used for Stripping
POLARITY	TOGGLE	F	Signal Polarity
CONDIT	TWOPARAM	F	1.50000E+001	0.00000E+000	Conditionin&g	Time(s)	E(V)
DELAY	TWOPARAM	F	5.00000E+000	0.00000E+000	Init. De&lay	Time(s)	Stab.(mV/s)
EQDELAY	QUANT	0.00000E+000	Equil. &Time (s)
IRCOMP	SELECTOR	0	IRCom&p
PFCOR	QUANT	5.00000E+001	PF Corr. (ohm)
SAMPLINGMODE	SELECTOR	1	Sampling &Mode
EOC	QUANT	0	Open Circuit (V)
PSTATMODEL	IQUANT	5	Pstat Model
PSTATSECTION	LABEL	REF3000-21108	Pstat Section
PSTATSERIALNO	LABEL	21108	Pstat Serial Number
CTRLMODE	IQUANT	1	Control Mode
ELECTROMETER	IQUANT	0	RE=0 or CS=1
IESTAB	IQUANT	2	I/E Stability
CASPEED	IQUANT	4	Control Amp Speed
CONVENTION	IQUANT	1	Current Convention
ICHRANGE	IQUANT	2	Ich Range
ICHRANGEMODE	TOGGLE	F	Ich Auto Range
ICHOFFSETENABLE	TOGGLE	F	Ich Offset Enable
ICHOFFSET	QUANT	0	Ich Offset (V)
ICHFILTER	IQUANT	2	Ich Filter
VCHRANGE	IQUANT	2	Vch Range
VCHRANGEMODE	TOGGLE	F	Vch Auto Range
VCHOFFSETENABLE	TOGGLE	F	Vch Offset Enable
VCHOFFSET	QUANT	0	Vch Offset (V)
VCHFILTER	IQUANT	2	Vch Filter
ACHRANGE	IQUANT	2	Ach Range
ACHOFFSETENABLE	TOGGLE	F	Ach Offset Enable
ACHOFFSET	QUANT	0	Ach Offset (V)
ACHFILTER	IQUANT	0	Ach Filter
IERANGELOWERLIMIT	IQUANT	2	I/E Range Lower Limit
IERANGEMODE	TOGGLE	F	I/E AutoRange
IERANGE	IQUANT	10	I/E Range
POSFEEDENABLE	TOGGLE	F	Positive Feedback IR Comp
POSFEEDRESISTANCE	QUANT	0	Positive Feedback Resistance (ohm)
ACHSELECT	IQUANT	0	Ach Select
SENSECABLEID	IQUANT	14	Sense Cable ID
PWRCABLEID	IQUANT	7	Power Cable ID
DCCALDATE	LABEL	11/9/2022	DC Calibration Date
ACCALDATE	LABEL	11/9/2022	AC Calibration Date
THERMOSELECT	IQUANT	1	Thermo Select
FRAMEWORKVERSION	LABEL	7.8.2	Framework Version
INSTRUMENTVERSION	LABEL	4.40	Instrument Version
COMPLIANCEVOLTAGE	IQUANT	0	Compliance Voltage
CURVE1	TABLE
	Pt	T	Vf	Im	Vu	Sig	Ach	IERange	Over	Temp
	#	s	V vs. Ref.	A	V	V	V	#	bits	deg C
	0	0.003333	4.98791E-001	9.93836E-006	0.00000E+000	5.00000E-001	-7.29272E-004	10	..........a	-327.74
	32	0.11	4.66821E-001	1.34111E-006	0.00000E+000	4.68000E-001	-7.39272E-004	10	..........a	-327.74
	64	0.216667	4.34864E-001	-2.88104E-007	0.00000E+000	4.36000E-001	-7.44272E-004	10	..........a	-327.74
	96	0.323333	4.02824E-001	-1.14031E-006	0.00000E+000	4.04000E-001	-7.39272E-004	10	..........a	-327.74
	128	0.43	3.70864E-001	-2.34342E-006	0.00000E+000	3.72000E-001	-7.54272E-004	10	..........a	-327.74
	160	0.536667	3.38824E-001	-3.42121E-006	0.00000E+000	3.40000E-001	-7.89272E-004	10	..........a	-327.74
	192	0.643333	3.06886E-001	-2.79459E-006	0.00000E+000	3.08000E-001	-7.54272E-004	10	..........a	-327.74
	224	0.75	2.74856E-001	-3.29589E-006	0.00000E+000	2.76000E-001	-7.39272E-004	10	..........a	-327.74
	256	0.856667	2.42899E-001	-3.17056E-006	0.00000E+000	2.44000E-001	-6.99272E-004	10	..........a	-327.74
	288	0.96333	2.10881E-001	-3.32095E-006	0.00000E+000	2.12000E-001	-7.44272E-004	10	..........a	-327.74
	320	1.07	1.78901E-001	-3.17056E-006	0.00000E+000	1.80000E-001	-7.34272E-004	10	..........a	-327.74
	352	1.17667	1.46911E-001	-3.12043E-006	0.00000E+000	1.48000E-001	-7.24272E-004	10	..........a	-327.74
	384	1.28333	1.14924E-001	-3.69692E-006	0.00000E+000	1.16000E-001	-7.24272E-004	10	..........a	-327.74
	416	1.39	8.29061E-002	-3.27082E-006	0.00000E+000	8.40000E-002	-7.14272E-004	10	..........a	-327.74
	448	1.49667	5.09486E-002	-3.62173E-006	0.00000E+000	5.20000E-002	-7.29272E-004	10	..........a	-327.74
	480	1.60333	1.88961E-002	-3.54653E-006	0.00000E+000	2.00000E-002	-7.04272E-004	10	..........a	-327.74
	512	1.71	-1.30514E-002	-3.67186E-006	0.00000E+000	-1.20000E-002	-7.14272E-004	10	..........a	-327.74
	544	1.81667	-4.50614E-002	-3.79718E-006	0.00000E+000	-4.40000E-002	-7.59272E-004	10	..........a	-327.74
	576	1.92333	-7.70464E-002	-3.84731E-006	0.00000E+000	-7.60000E-002	-7.14272E-004	10	..........a	-327.74
	608	2.03	-1.09054E-001	-3.94757E-006	0.00000E+000	-1.08000E-001	-7.39272E-004	10	..........a	-327.74
	640	2.13667	-1.40979E-001	-4.09796E-006	0.00000E+000	-1.40000E-001	-7.29272E-004	10	..........a	-327.74
	672	2.24333	-1.72986E-001	-4.27342E-006	0.00000E+000	-1.72000E-001	-7.14272E-004	10	..........a	-327.74
	704	2.35	-2.04956E-001	-4.84991E-006	0.00000E+000	-2.04000E-001	-7.04272E-004	10	..........a	-327.74
	736	2.45667	-2.36866E-001	-6.57938E-006	0.00000E+000	-2.36000E-001	-7.09272E-004	10	..........a	-327.74
	768	2.56333	-2.68911E-001	-9.18612E-006	0.00000E+000	-2.68000E-001	-7.44272E-004	10	..........a	-327.74
	800	2.67	-3.00911E-001	-1.21438E-005	0.00000E+000	-3.00000E-001	-7.39272E-004	10	..........a	-327.74
	832	2.77667	-3.32866E-001	-1.59536E-005	0.00000E+000	-3.32000E-001	-7.69272E-004	10	..........a	-327.74
	864	2.88333	-3.64936E-001	-1.96131E-005	0.00000E+000	-3.64000E-001	-7.24272E-004	10	..........a	-327.74
	896	2.99	-3.96831E-001	-2.20193E-005	0.00000E+000	-3.96000E-001	-7.49272E-004	10	..........a	-327.74
	928	3.09667	-4.28891E-001	-2.65059E-005	0.00000E+000	-4.28000E-001	-7.19272E-004	10	..........a	-327.74
	960	3.20333	-4.60831E-001	-5.31499E-005	0.00000E+000	-4.60000E-001	-7.44272E-004	10	..........a	-327.74
	992	3.31	-4.92874E-001	-1.41930E-004	0.00000E+000	-4.92000E-001	-6.99272E-004	10	..........a	-327.74
	1024	3.41667	-5.24804E-001	-3.35957E-004	0.00000E+000	-5.24000E-001	-7.39272E-004	10	..........a	-327.74
	1056	3.52333	-5.56811E-001	-4.87499E-004	0.00000E+000	-5.56000E-001	-7.29272E-004	10	..........a	-327.74
	1088	3.63	-5.88804E-001	-4.04684E-004	0.00000E+000	-5.88000E-001	-7.19272E-004	10	..........a	-327.74
	1120	3.73667	-6.20786E-001	-3.15629E-004	0.00000E+000	-6.20000E-001	-7.29272E-004	10	..........a	-327.74
	1152	3.84333	-6.52739E-001	-2.67555E-004	0.00000E+000	-6.52000E-001	-7.69272E-004	10	..........a	-327.74
	1184	3.95	-6.84766E-001	-2.37727E-004	0.00000E+000	-6.84000E-001	-7.89272E-004	10	..........a	-327.74
	1216	4.05667	-7.16731E-001	-2.16648E-004	0.00000E+000	-7.16000E-001	-7.24272E-004	10	..........a	-327.74
	1248	4.16333	-7.48734E-001	-1.99679E-004	0.00000E+000	-7.48000E-001	-7.24272E-004	10	..........a	-327.74
	1280	4.27	-7.80709E-001	-1.87172E-004	0.00000E+000	-7.80000E-001	-7.34272E-004	10	..........a	-327.74
	1312	4.37667	-8.12706E-001	-1.76845E-004	0.00000E+000	-8.12000E-001	-7.44272E-004	10	..........a	-327.74
	1344	4.48333	-8.44656E-001	-1.68874E-004	0.00000E+000	-8.44000E-001	-7.34272E-004	10	..........a	-327.74
	1376	4.59	-8.76601E-001	-1.61756E-004	0.00000E+000	-8.76000E-001	-7.29272E-004	10	..........a	-327.74
	1408	4.69667	-9.08629E-001	-1.56392E-004	0.00000E+000	-9.08000E-001	-7.64272E-004	10	..........a	-327.74
	1440	4.80333	-9.40611E-001	-1.52457E-004	0.00000E+000	-9.40000E-001	-7.24272E-004	10	..........a	-327.74
[...]
	1984	6.61667	-5.16836E-001	2.42565E-004	0.00000E+000	-5.16000E-001	-6.99272E-004	10	..........a	-327.74
	2016	6.72333	-4.84866E-001	3.01292E-004	0.00000E+000	-4.84000E-001	-7.44272E-004	10	..........a	-327.74
	2048	6.83	-4.52881E-001	2.35948E-004	0.00000E+000	-4.52000E-001	-7.14272E-004	10	..........a	-327.74
	2080	6.93667	-4.20936E-001	1.75592E-004	0.00000E+000	-4.20000E-001	-7.29272E-004	10	..........a	-327.74
	2112	7.04333	-3.88851E-001	1.36942E-004	0.00000E+000	-3.88000E-001	-7.34272E-004	10	..........a	-327.74
	2144	7.15	-3.56916E-001	1.11476E-004	0.00000E+000	-3.56000E-001	-7.29272E-004	10	..........a	-327.74
	2176	7.25667	-3.24926E-001	9.37051E-005	0.00000E+000	-3.24000E-001	-7.54272E-004	10	..........a	-327.74
	2208	7.36333	-2.92901E-001	8.07466E-005	0.00000E+000	-2.92000E-001	-7.14272E-004	10	..........a	-327.74
	2240	7.47	-2.60939E-001	7.07707E-005	0.00000E+000	-2.60000E-001	-7.44272E-004	10	..........a	-327.74
	2272	7.57667	-2.28929E-001	6.34267E-005	0.00000E+000	-2.28000E-001	-7.49272E-004	10	..........a	-327.74
	2304	7.68333	-1.96909E-001	5.75114E-005	0.00000E+000	-1.96000E-001	-7.19272E-004	10	..........a	-327.74
	2336	7.79	-1.65061E-001	5.27992E-005	0.00000E+000	-1.64000E-001	-6.99272E-004	10	..........a	-327.74
	2368	7.89667	-1.32909E-001	4.85633E-005	0.00000E+000	-1.32000E-001	-7.29272E-004	10	..........a	-327.74
	2400	8.00333	-1.01014E-001	4.61571E-005	0.00000E+000	-1.00000E-001	-7.84272E-004	10	..........a	-327.74
	2432	8.11	-6.90164E-002	4.46532E-005	0.00000E+000	-6.80000E-002	-7.24272E-004	10	..........a	-327.74
	2464	8.21667	-3.71014E-002	4.38260E-005	0.00000E+000	-3.60000E-002	-7.24272E-004	10	..........a	-327.74
	2496	8.32333	-5.07894E-003	4.41268E-005	0.00000E+000	-4.00001E-003	-7.49272E-004	10	..........a	-327.74
	2528	8.43	2.69361E-002	4.45278E-005	0.00000E+000	2.80000E-002	-7.09272E-004	10	..........a	-327.74
	2560	8.53667	5.89236E-002	4.34501E-005	0.00000E+000	6.00000E-002	-7.94272E-004	10	..........a	-327.74
	2592	8.64333	9.10086E-002	3.99660E-005	0.00000E+000	9.20000E-002	-7.09272E-004	10	..........a	-327.74
	2624	8.75	1.22924E-001	3.66575E-005	0.00000E+000	1.24000E-001	-7.69272E-004	10	..........a	-327.74
	2656	8.85667	1.54971E-001	3.30732E-005	0.00000E+000	1.56000E-001	-7.34272E-004	10	..........a	-327.74
	2688	8.96333	1.86926E-001	3.07672E-005	0.00000E+000	1.88000E-001	-7.19272E-004	10	..........a	-327.74
	2720	9.07	2.18854E-001	2.81856E-005	0.00000E+000	2.20000E-001	-7.79272E-004	10	..........a	-327.74
	2752	9.17667	2.50859E-001	2.68321E-005	0.00000E+000	2.52000E-001	-7.34272E-004	10	..........a	-327.74
	2784	9.28333	2.82904E-001	2.48770E-005	0.00000E+000	2.84000E-001	-7.59272E-004	10	..........a	-327.74
	2816	9.39	3.14866E-001	2.39747E-005	0.00000E+000	3.16000E-001	-6.89272E-004	10	..........a	-327.74
	2848	9.49667	3.46836E-001	2.27966E-005	0.00000E+000	3.48000E-001	-7.74272E-004	10	..........a	-327.74
	2880	9.6033	3.78801E-001	2.27716E-005	0.00000E+000	3.80000E-001	-7.49272E-004	10	..........a	-327.74
	2912	9.71	4.10779E-001	2.14431E-005	0.00000E+000	4.12000E-001	-7.09272E-004	10	..........a	-327.74
	2944	9.8167	4.42784E-001	2.05909E-005	0.00000E+000	4.44000E-001	-7.99272E-004	10	..........a	-327.74
	2976	9.9233	4.74744E-001	1.98390E-005	0.00000E+000	4.76000E-001	-7.24272E-004	10	..........a	-327.74
	3000	10.0033	4.98799E-001	1.91121E-005	0.00000E+000	5.00000E-001	-7.49272E-004	10	..........a	-327.74
CURVE2	TABLE
	Pt	T	Vf	Im	Vu	Sig	Ach	IERange	Over	Temp
	#	s	V vs. Ref.	A	V	V	V	#	bits	deg C
	3001	10.0067	4.98794E-001	1.84855E-005	0.00000E+000	5.00000E-001	-7.14272E-004	10	..........a	-327.74

File: 1mkcl-18btmapaq-nitrogen-400mvpers.DTA
EXPLAIN
TAG	CV
TITLE	LABEL	Cyclic Voltammetry	Test &Identifier
DATE	LABEL	1/31/2023	Date
TIME	LABEL	15:21:10	Time
NOTES	NOTES	1	&Notes...

PSTAT	PSTAT	REF3000-21108	Potentiostat
VINIT	POTEN	5.00000E-001	F	Initial &E (V)
VLIMIT1	POTEN	-1.00000E+000	F	Scan Limit &1 (V)
VLIMIT2	POTEN	5.00000E-001	F	Scan Limit &2 (V)
VFINAL	POTEN	5.00000E-001	F	Final &E (V)
SCANRATE	QUANT	3.99999E+002	&Scan Rate (mV/s)
STEPSIZE	QUANT	1.00000E+000	St&ep Size (mV)
CYCLES	IQUANT	1	C&ycles (#)
IMODE	SELECTOR	1	I/E Range &Mode
IRANGE	QUANT	1.00000E+001	&Max Current (mA)
AREA	QUANT	1.00000E+000	Electrode &Area (cm^2)
ELECTRODETYPE	SELECTOR	0	Electrode Type
STRIPPING	TOGGLE	F	Used for Stripping
POLARITY	TOGGLE	F	Signal Polarity
CONDIT	TWOPARAM	F	1.50000E+001	0.00000E+000	Conditionin&g	Time(s)	E(V)
DELAY	TWOPARAM	F	5.00000E+000	0.00000E+000	Init. De&lay	Time(s)	Stab.(mV/s)
EQDELAY	QUANT	0.00000E+000	Equil. &Time (s)
IRCOMP	SELECTOR	0	IRCom&p
PFCOR	QUANT	5.00000E+001	PF Corr. (ohm)
SAMPLINGMODE	SELECTOR	1	Sampling &Mode
EOC	QUANT	0	Open Circuit (V)
PSTATMODEL	IQUANT	5	Pstat Model
PSTATSECTION	LABEL	REF3000-21108	Pstat Section
PSTATSERIALNO	LABEL	21108	Pstat Serial Number
CTRLMODE	IQUANT	1	Control Mode
ELECTROMETER	IQUANT	0	RE=0 or CS=1
IESTAB	IQUANT	2	I/E Stability
CASPEED	IQUANT	4	Control Amp Speed
CONVENTION	IQUANT	1	Current Convention
ICHRANGE	IQUANT	2	Ich Range
ICHRANGEMODE	TOGGLE	F	Ich Auto Range
ICHOFFSETENABLE	TOGGLE	F	Ich Offset Enable
ICHOFFSET	QUANT	0	Ich Offset (V)
ICHFILTER	IQUANT	2	Ich Filter
VCHRANGE	IQUANT	2	Vch Range
VCHRANGEMODE	TOGGLE	F	Vch Auto Range
VCHOFFSETENABLE	TOGGLE	F	Vch Offset Enable
VCHOFFSET	QUANT	0	Vch Offset (V)
VCHFILTER	IQUANT	2	Vch Filter
ACHRANGE	IQUANT	2	Ach Range
ACHOFFSETENABLE	TOGGLE	F	Ach Offset Enable
ACHOFFSET	QUANT	0	Ach Offset (V)
ACHFILTER	IQUANT	0	Ach Filter
IERANGELOWERLIMIT	IQUANT	2	I/E Range Lower Limit
IERANGEMODE	TOGGLE	F	I/E AutoRange
IERANGE	IQUANT	10	I/E Range
POSFEEDENABLE	TOGGLE	F	Positive Feedback IR Comp
POSFEEDRESISTANCE	QUANT	0	Positive Feedback Resistance (ohm)
ACHSELECT	IQUANT	0	Ach Select
SENSECABLEID	IQUANT	14	Sense Cable ID
PWRCABLEID	IQUANT	7	Power Cable ID
DCCALDATE	LABEL	11/9/2022	DC Calibration Date
ACCALDATE	LABEL	11/9/2022	AC Calibration Date
THERMOSELECT	IQUANT	1	Thermo Select
FRAMEWORKVERSION	LABEL	7.8.2	Framework Version
INSTRUMENTVERSION	LABEL	4.40	Instrument Version
COMPLIANCEVOLTAGE	IQUANT	0	Compliance Voltage
CURVE1	TABLE
	Pt	T	Vf	Im	Vu	Sig	Ach	IERange	Over	Temp
	#	s	V vs. Ref.	A	V	V	V	#	bits	deg C
	0	0.0025	4.98808E-001	1.48260E-005	0.00000E+000	5.00000E-001	-7.89272E-004	10	..........a	-327.74
	31	0.08	4.67748E-001	2.96197E-006	0.00000E+000	4.69000E-001	-7.82606E-004	10	..........a	-327.74
	62	0.1575	4.36811E-001	5.44490E-008	0.00000E+000	4.38000E-001	-7.62605E-004	10	..........a	-327.74
	93	0.235	4.05888E-001	-8.14466E-007	0.00000E+000	4.07000E-001	-7.29272E-004	10	..........a	-327.74
	124	0.3125	3.74821E-001	-2.65255E-006	0.00000E+000	3.76000E-001	-7.49272E-004	10	..........a	-327.74
	155	0.39	3.43828E-001	-3.85567E-006	0.00000E+000	3.45000E-001	-7.22606E-004	10	..........a	-327.74
	186	0.4675	3.12901E-001	-4.08961E-006	0.00000E+000	3.14000E-001	-6.89272E-004	10	..........a	-327.74
	217	0.545	2.81874E-001	-3.85567E-006	0.00000E+000	2.83000E-001	-7.49272E-004	10	..........a	-327.74
	248	0.6225	2.50898E-001	-4.18987E-006	0.00000E+000	2.52000E-001	-7.69272E-004	10	..........a	-327.74
	279	0.7	2.19781E-001	-4.18987E-006	0.00000E+000	2.21000E-001	-7.29272E-004	10	..........a	-327.74
	310	0.7775	1.88931E-001	-3.92251E-006	0.00000E+000	1.90000E-001	-7.62605E-004	10	..........a	-327.74
	341	0.855	1.57944E-001	-4.18987E-006	0.00000E+000	1.59000E-001	-7.62605E-004	10	..........a	-327.74
	372	0.9325	1.26954E-001	-4.29012E-006	0.00000E+000	1.28000E-001	-7.42605E-004	10	..........a	-327.74
	403	1.01	9.59177E-002	-4.25670E-006	0.00000E+000	9.70000E-002	-7.42605E-004	10	..........a	-327.74
	434	1.0875	6.50177E-002	-4.45722E-006	0.00000E+000	6.60000E-002	-7.15939E-004	10	..........a	-327.74
	465	1.165	3.40011E-002	-4.32354E-006	0.00000E+000	3.50000E-002	-7.55939E-004	10	..........a	-327.74
	496	1.2425	2.92773E-003	-4.65774E-006	0.00000E+000	4.00001E-003	-7.29272E-004	10	..........a	-327.74
	527	1.32	-2.80056E-002	-4.72458E-006	0.00000E+000	-2.70000E-002	-7.09272E-004	10	..........a	-327.74
	558	1.3975	-5.90456E-002	-4.59090E-006	0.00000E+000	-5.80000E-002	-6.82606E-004	10	..........a	-327.74
	589	1.475	-8.99623E-002	-4.25670E-006	0.00000E+000	-8.90000E-002	-8.09272E-004	10	..........a	-327.74
	620	1.5525	-1.20972E-001	-4.85826E-006	0.00000E+000	-1.20000E-001	-7.15939E-004	10	..........a	-327.74
	651	1.63	-1.51949E-001	-4.99194E-006	0.00000E+000	-1.51000E-001	-7.42605E-004	10	..........a	-327.74
	682	1.7075	-1.82939E-001	-5.12562E-006	0.00000E+000	-1.82000E-001	-7.35939E-004	10	..........a	-327.74
	713	1.785	-2.13882E-001	-6.06137E-006	0.00000E+000	-2.13000E-001	-6.82606E-004	10	..........a	-327.74
	744	1.8625	-2.44872E-001	-7.76579E-006	0.00000E+000	-2.44000E-001	-7.55939E-004	10	..........a	-327.74
	775	1.94	-2.75892E-001	-1.03057E-005	0.00000E+000	-2.75000E-001	-7.89272E-004	10	..........a	-327.74
	806	2.0175	-3.06906E-001	-1.35474E-005	0.00000E+000	-3.06000E-001	-7.29272E-004	10	..........a	-327.74
	837	2.095	-3.37872E-001	-1.76580E-005	0.00000E+000	-3.37000E-001	-7.29272E-004	10	..........a	-327.74
	868	2.1725	-3.68916E-001	-2.15013E-005	0.00000E+000	-3.68000E-001	-6.75939E-004	10	..........a	-327.74
	899	2.25	-3.99849E-001	-2.56120E-005	0.00000E+000	-3.99000E-001	-7.22606E-004	10	..........a	-327.74
	930	2.3275	-4.30802E-001	-3.35993E-005	0.00000E+000	-4.30000E-001	-7.95939E-004	10	..........a	-327.74
	961	2.405	-4.61829E-001	-6.70191E-005	0.00000E+000	-4.61000E-001	-6.75939E-004	10	..........a	-327.74
	992	2.4825	-4.92839E-001	-1.64471E-004	0.00000E+000	-4.92000E-001	-7.35939E-004	10	..........a	-327.74
	1023	2.56	-5.23726E-001	-3.70404E-004	0.00000E+000	-5.23000E-001	-7.29272E-004	10	..........a	-327.74
	1054	2.6375	-5.54796E-001	-5.49668E-004	0.00000E+000	-5.54000E-001	-7.22606E-004	10	..........a	-327.74
	1085	2.715	-5.85772E-001	-4.87507E-004	0.00000E+000	-5.85000E-001	-7.02605E-004	10	..........a	-327.74
	1116	2.7925	-6.16689E-001	-3.78558E-004	0.00000E+000	-6.16000E-001	-7.09272E-004	10	..........a	-327.74
	1147	2.87	-6.47739E-001	-3.17901E-004	0.00000E+000	-6.47000E-001	-7.55939E-004	10	..........a	-327.74
	1178	2.9475	-6.78706E-001	-2.80204E-004	0.00000E+000	-6.78000E-001	-7.15939E-004	10	..........a	-327.74
	1209	3.025	-7.09722E-001	-2.53000E-004	0.00000E+000	-7.09000E-001	-7.62605E-004	10	..........a	-327.74
	1240	3.1025	-7.40709E-001	-2.32648E-004	0.00000E+000	-7.40000E-001	-7.49272E-004	10	..........a	-327.74
	1271	3.18	-7.71649E-001	-2.16673E-004	0.00000E+000	-7.71000E-001	-7.95939E-004	10	..........a	-327.74
	1302	3.2575	-8.02716E-001	-2.03907E-004	0.00000E+000	-8.02000E-001	-7.55939E-004	10	..........a	-327.74
	1333	3.335	-8.33619E-001	-1.93313E-004	0.00000E+000	-8.33000E-001	-7.75939E-004	10	..........a	-327.74
	1364	3.4125	-8.64576E-001	-1.85058E-004	0.00000E+000	-8.64000E-001	-7.22606E-004	10	..........a	-327.74
	1395	3.49	-8.95616E-001	-1.77338E-004	0.00000E+000	-8.95000E-001	-7.95939E-004	10	..........a	-327.74
	1426	3.5675	-9.26632E-001	-1.70955E-004	0.00000E+000	-9.26000E-001	-7.55939E-004	10	..........a	-327.74
[...]
	2015	5.04	-4.85856E-001	3.74423E-004	0.00000E+000	-4.85000E-001	-7.69272E-004	10	..........a	-327.74
	2046	5.1175	-4.54819E-001	2.97858E-004	0.00000E+000	-4.54000E-001	-7.49272E-004	10	..........a	-327.74
	2077	5.195	-4.23809E-001	2.24736E-004	0.00000E+000	-4.23000E-001	-7.62605E-004	10	..........a	-327.74
	2108	5.2725	-3.92826E-001	1.77213E-004	0.00000E+000	-3.92000E-001	-7.82606E-004	10	..........a	-327.74
	2139	5.35	-3.61862E-001	1.46901E-004	0.00000E+000	-3.61000E-001	-7.49272E-004	10	..........a	-327.74
	2170	5.4275	-3.30856E-001	1.24744E-004	0.00000E+000	-3.30000E-001	-8.09272E-004	10	..........a	-327.74
	2201	5.505	-2.99876E-001	1.08769E-004	0.00000E+000	-2.99000E-001	-7.75939E-004	10	..........a	-327.74
	2232	5.5825	-2.68879E-001	9.69384E-005	0.00000E+000	-2.68000E-001	-7.69272E-004	10	..........a	-327.74
	2263	5.66	-2.37889E-001	8.78483E-005	0.00000E+000	-2.37000E-001	-7.69272E-004	10	..........a	-327.74
	2294	5.7375	-2.06882E-001	8.02286E-005	0.00000E+000	-2.06000E-001	-7.69272E-004	10	..........a	-327.74
	2325	5.815	-1.75962E-001	7.37785E-005	0.00000E+000	-1.75000E-001	-7.29272E-004	10	..........a	-327.74
	2356	5.8925	-1.44946E-001	6.79635E-005	0.00000E+000	-1.44000E-001	-8.09272E-004	10	..........a	-327.74
	2387	5.97	-1.13906E-001	6.39531E-005	0.00000E+000	-1.13000E-001	-7.62605E-004	10	..........a	-327.74
	2418	6.0475	-8.30056E-002	6.03103E-005	0.00000E+000	-8.20000E-002	-7.82606E-004	10	..........a	-327.74
	2449	6.125	-5.19456E-002	5.67344E-005	0.00000E+000	-5.10000E-002	-8.02606E-004	10	..........a	-327.74
	2480	6.2025	-2.09689E-002	5.59658E-005	0.00000E+000	-2.00000E-002	-7.69272E-004	10	..........a	-327.74
	2511	6.28	1.00444E-002	5.45621E-005	0.00000E+000	1.10000E-002	-8.22606E-004	10	..........a	-327.74
	2542	6.3575	4.10711E-002	5.25235E-005	0.00000E+000	4.20000E-002	-8.15939E-004	10	..........a	-327.74
	2573	6.435	7.19777E-002	5.02176E-005	0.00000E+000	7.30000E-002	-8.22606E-004	10	..........a	-327.74
	2604	6.5125	1.02981E-001	4.70427E-005	0.00000E+000	1.04000E-001	-7.82606E-004	10	..........a	-327.74
	2635	6.59	1.33981E-001	4.33665E-005	0.00000E+000	1.35000E-001	-7.55939E-004	10	..........a	-327.74
	2666	6.6675	1.64934E-001	4.01582E-005	0.00000E+000	1.66000E-001	-7.75939E-004	10	..........a	-327.74
	2697	6.745	1.95898E-001	3.76183E-005	0.00000E+000	1.97000E-001	-7.82606E-004	10	..........a	-327.74
	2728	6.8225	2.26864E-001	3.53458E-005	0.00000E+000	2.28000E-001	-8.02606E-004	10	..........a	-327.74
	2759	6.9	2.57874E-001	3.30732E-005	0.00000E+000	2.59000E-001	-7.95939E-004	10	..........a	-327.74
	2790	6.9775	2.88961E-001	3.15025E-005	0.00000E+000	2.90000E-001	-8.02606E-004	10	..........a	-327.74
	2821	7.055	3.19898E-001	3.02325E-005	0.00000E+000	3.21000E-001	-7.29272E-004	10	..........a	-327.74
	2852	7.1325	3.50861E-001	2.88623E-005	0.00000E+000	3.52000E-001	-8.02606E-004	10	..........a	-327.74
	2883	7.21	3.81884E-001	2.79934E-005	0.00000E+000	3.83000E-001	-8.42605E-004	10	..........a	-327.74
	2914	7.2875	4.12821E-001	2.71913E-005	0.00000E+000	4.14000E-001	-7.62605E-004	10	..........a	-327.74
	2945	7.365	4.43841E-001	2.60885E-005	0.00000E+000	4.45000E-001	-7.62605E-004	10	..........a	-327.74
	2976	7.4425	4.74881E-001	2.49522E-005	0.00000E+000	4.76000E-001	-7.69272E-004	10	..........a	-327.74
	3000	7.5025	4.98821E-001	2.41835E-005	0.00000E+000	5.00000E-001	-7.42605E-004	10	..........a	-327.74
CURVE2	TABLE
	Pt	T	Vf	Im	Vu	Sig	Ach	IERange	Over	Temp
	#	s	V vs. Ref.	A	V	V	V	#	bits	deg C
	3001	7.505	4.98798E-001	2.34483E-005	0.00000E+000	5.00000E-001	-7.75939E-004	10	..........a	-327.74