Folder: 2024-09-QuCO2-NCE/data/02-SI/Figures_S9_S11_RDE/18btmapaq-rde (part 4)

File: 1mkcl-18btmapaq-nitrogen-100mvpers.DTA
EXPLAIN
TAG	CV
TITLE	LABEL	Cyclic Voltammetry	Test &Identifier
DATE	LABEL	1/31/2023	Date
TIME	LABEL	15:19:32	Time
NOTES	NOTES	1	&Notes...

PSTAT	PSTAT	REF3000-21108	Potentiostat
VINIT	POTEN	5.00000E-001	F	Initial &E (V)
VLIMIT1	POTEN	-1.00000E+000	F	Scan Limit &1 (V)
VLIMIT2	POTEN	5.00000E-001	F	Scan Limit &2 (V)
VFINAL	POTEN	5.00000E-001	F	Final &E (V)
SCANRATE	QUANT	9.99998E+001	&Scan Rate (mV/s)
STEPSIZE	QUANT	1.00000E+000	St&ep Size (mV)
CYCLES	IQUANT	1	C&ycles (#)
IMODE	SELECTOR	1	I/E Range &Mode
IRANGE	QUANT	1.00000E+001	&Max Current (mA)
AREA	QUANT	1.00000E+000	Electrode &Area (cm^2)
ELECTRODETYPE	SELECTOR	0	Electrode Type
STRIPPING	TOGGLE	F	Used for Stripping
POLARITY	TOGGLE	F	Signal Polarity
CONDIT	TWOPARAM	F	1.50000E+001	0.00000E+000	Conditionin&g	Time(s)	E(V)
DELAY	TWOPARAM	F	5.00000E+000	0.00000E+000	Init. De&lay	Time(s)	Stab.(mV/s)
EQDELAY	QUANT	0.00000E+000	Equil. &Time (s)
IRCOMP	SELECTOR	0	IRCom&p
PFCOR	QUANT	5.00000E+001	PF Corr. (ohm)
SAMPLINGMODE	SELECTOR	1	Sampling &Mode
EOC	QUANT	0	Open Circuit (V)
PSTATMODEL	IQUANT	5	Pstat Model
PSTATSECTION	LABEL	REF3000-21108	Pstat Section
PSTATSERIALNO	LABEL	21108	Pstat Serial Number
CTRLMODE	IQUANT	1	Control Mode
ELECTROMETER	IQUANT	0	RE=0 or CS=1
IESTAB	IQUANT	2	I/E Stability
CASPEED	IQUANT	4	Control Amp Speed
CONVENTION	IQUANT	1	Current Convention
ICHRANGE	IQUANT	2	Ich Range
ICHRANGEMODE	TOGGLE	F	Ich Auto Range
ICHOFFSETENABLE	TOGGLE	F	Ich Offset Enable
ICHOFFSET	QUANT	0	Ich Offset (V)
ICHFILTER	IQUANT	2	Ich Filter
VCHRANGE	IQUANT	2	Vch Range
VCHRANGEMODE	TOGGLE	F	Vch Auto Range
VCHOFFSETENABLE	TOGGLE	F	Vch Offset Enable
VCHOFFSET	QUANT	0	Vch Offset (V)
VCHFILTER	IQUANT	2	Vch Filter
ACHRANGE	IQUANT	2	Ach Range
ACHOFFSETENABLE	TOGGLE	F	Ach Offset Enable
ACHOFFSET	QUANT	0	Ach Offset (V)
ACHFILTER	IQUANT	0	Ach Filter
IERANGELOWERLIMIT	IQUANT	2	I/E Range Lower Limit
IERANGEMODE	TOGGLE	F	I/E AutoRange
IERANGE	IQUANT	10	I/E Range
POSFEEDENABLE	TOGGLE	F	Positive Feedback IR Comp
POSFEEDRESISTANCE	QUANT	0	Positive Feedback Resistance (ohm)
ACHSELECT	IQUANT	0	Ach Select
SENSECABLEID	IQUANT	14	Sense Cable ID
PWRCABLEID	IQUANT	7	Power Cable ID
DCCALDATE	LABEL	11/9/2022	DC Calibration Date
ACCALDATE	LABEL	11/9/2022	AC Calibration Date
THERMOSELECT	IQUANT	1	Thermo Select
FRAMEWORKVERSION	LABEL	7.8.2	Framework Version
INSTRUMENTVERSION	LABEL	4.40	Instrument Version
COMPLIANCEVOLTAGE	IQUANT	0	Compliance Voltage
CURVE1	TABLE
	Pt	T	Vf	Im	Vu	Sig	Ach	IERange	Over	Temp
	#	s	V vs. Ref.	A	V	V	V	#	bits	deg C
	0	0.01	4.98806E-001	3.31288E-006	0.00000E+000	5.00000E-001	-7.67605E-004	10	..........a	-327.74
	31	0.32	4.67831E-001	-2.37974E-007	0.00000E+000	4.69000E-001	-7.65939E-004	10	..........a	-327.74
	62	0.63	4.36799E-001	-5.63817E-007	0.00000E+000	4.38000E-001	-7.74272E-004	10	..........a	-327.74
	93	0.94	4.05879E-001	-7.81046E-007	0.00000E+000	4.07000E-001	-7.74272E-004	10	..........a	-327.74
	124	1.25	3.74823E-001	-1.14866E-006	0.00000E+000	3.76000E-001	-7.47606E-004	10	..........a	-327.74
	155	1.56	3.43844E-001	-1.57477E-006	0.00000E+000	3.45000E-001	-7.37606E-004	10	..........a	-327.74
	186	1.87	3.12917E-001	-1.52464E-006	0.00000E+000	3.14000E-001	-7.29272E-004	10	..........a	-327.74
	217	2.18	2.81885E-001	-1.70845E-006	0.00000E+000	2.83000E-001	-7.65939E-004	10	..........a	-327.74
	248	2.49	2.50889E-001	-2.10948E-006	0.00000E+000	2.52000E-001	-7.32606E-004	10	..........a	-327.74
	279	2.8	2.19845E-001	-1.94238E-006	0.00000E+000	2.21000E-001	-7.09272E-004	10	..........a	-327.74
	310	3.11	1.88934E-001	-2.21810E-006	0.00000E+000	1.90000E-001	-7.37606E-004	10	..........a	-327.74
	341	3.42	1.57974E-001	-2.37684E-006	0.00000E+000	1.59000E-001	-7.34272E-004	10	..........a	-327.74
	372	3.73	1.26936E-001	-2.23481E-006	0.00000E+000	1.28000E-001	-7.34272E-004	10	..........a	-327.74
	403	4.04	9.59452E-002	-2.17632E-006	0.00000E+000	9.70000E-002	-7.39272E-004	10	..........a	-327.74
	434	4.35	6.50852E-002	-1.85883E-006	0.00000E+000	6.60000E-002	-7.20939E-004	10	..........a	-327.74
	465	4.66	3.39869E-002	-1.89225E-006	0.00000E+000	3.50000E-002	-7.55939E-004	10	..........a	-327.74
	496	4.97	2.97023E-003	-1.98416E-006	0.00000E+000	4.00001E-003	-7.32606E-004	10	..........a	-327.74
	527	5.28	-2.79406E-002	-2.19303E-006	0.00000E+000	-2.70000E-002	-7.40939E-004	10	..........a	-327.74
	558	5.59	-5.89923E-002	-2.22645E-006	0.00000E+000	-5.80000E-002	-7.40939E-004	10	..........a	-327.74
	589	5.9	-8.99514E-002	-2.02593E-006	0.00000E+000	-8.90000E-002	-7.29272E-004	10	..........a	-327.74
	620	6.21	-1.21015E-001	-2.32671E-006	0.00000E+000	-1.20000E-001	-7.20939E-004	10	..........a	-327.74
	651	6.52	-1.51963E-001	-2.60242E-006	0.00000E+000	-1.51000E-001	-7.05939E-004	10	..........a	-327.74
	682	6.83	-1.82902E-001	-3.23740E-006	0.00000E+000	-1.82000E-001	-6.99272E-004	10	..........a	-327.74
	713	7.14	-2.13928E-001	-4.33190E-006	0.00000E+000	-2.13000E-001	-6.94272E-004	10	..........a	-327.74
	744	7.45	-2.44875E-001	-5.71047E-006	0.00000E+000	-2.44000E-001	-6.84272E-004	10	..........a	-327.74
	775	7.76	-2.75865E-001	-8.57621E-006	0.00000E+000	-2.75000E-001	-7.14272E-004	10	..........a	-327.74
	806	8.07	-3.06926E-001	-1.12999E-005	0.00000E+000	-3.06000E-001	-7.20939E-004	10	..........a	-327.74
	837	8.38	-3.37911E-001	-1.29709E-005	0.00000E+000	-3.37000E-001	-7.44272E-004	10	..........a	-327.74
	868	8.69	-3.68755E-001	-1.41824E-005	0.00000E+000	-3.68000E-001	-7.09272E-004	10	..........a	-327.74
	899	9	-3.99826E-001	-1.46920E-005	0.00000E+000	-3.99000E-001	-7.35939E-004	10	..........a	-327.74
	930	9.31	-4.30851E-001	-1.58784E-005	0.00000E+000	-4.30000E-001	-7.25939E-004	10	..........a	-327.74
	961	9.62	-4.61793E-001	-3.03242E-005	0.00000E+000	-4.61000E-001	-7.57606E-004	10	..........a	-327.74
	992	9.93	-4.92843E-001	-8.44057E-005	0.00000E+000	-4.92000E-001	-6.92606E-004	10	..........a	-327.74
	1023	10.24	-5.23712E-001	-2.06964E-004	0.00000E+000	-5.23000E-001	-7.35939E-004	10	..........a	-327.74
	1054	10.55	-5.54788E-001	-2.90572E-004	0.00000E+000	-5.54000E-001	-7.12606E-004	10	..........a	-327.74
	1085	10.86	-5.85831E-001	-2.29498E-004	0.00000E+000	-5.85000E-001	-7.02605E-004	10	..........a	-327.74
	1116	11.17	-6.16718E-001	-1.83387E-004	0.00000E+000	-6.16000E-001	-7.15939E-004	10	..........a	-327.74
	1147	11.48	-6.47717E-001	-1.58564E-004	0.00000E+000	-6.47000E-001	-7.15939E-004	10	..........a	-327.74
	1178	11.79	-6.78731E-001	-1.42372E-004	0.00000E+000	-6.78000E-001	-7.62605E-004	10	..........a	-327.74
	1209	12.1	-7.09756E-001	-1.32438E-004	0.00000E+000	-7.09000E-001	-7.24272E-004	10	..........a	-327.74
	1240	12.41	-7.40736E-001	-1.24777E-004	0.00000E+000	-7.40000E-001	-7.52606E-004	10	..........a	-327.74
	1271	12.72	-7.71675E-001	-1.17416E-004	0.00000E+000	-7.71000E-001	-7.17605E-004	10	..........a	-327.74
	1302	13.03	-8.02661E-001	-1.11618E-004	0.00000E+000	-8.02000E-001	-7.32606E-004	10	..........a	-327.74
	1333	13.34	-8.33616E-001	-1.07257E-004	0.00000E+000	-8.33000E-001	-7.45939E-004	10	..........a	-327.74
	1364	13.65	-8.64601E-001	-1.04132E-004	0.00000E+000	-8.64000E-001	-7.32606E-004	10	..........a	-327.74
	1395	13.96	-8.95612E-001	-1.01734E-004	0.00000E+000	-8.95000E-001	-6.82606E-004	10	..........a	-327.74
	1426	14.27	-9.26649E-001	-9.91272E-005	0.00000E+000	-9.26000E-001	-6.92606E-004	10	..........a	-327.74
[...]
	1984	19.85	-5.16813E-001	9.89353E-005	0.00000E+000	-5.16000E-001	-7.67605E-004	10	..........a	-327.74
	2015	20.16	-4.85883E-001	1.31611E-004	0.00000E+000	-4.85000E-001	-7.77606E-004	10	..........a	-327.74
	2046	20.47	-4.54826E-001	1.01392E-004	0.00000E+000	-4.54000E-001	-7.72606E-004	10	..........a	-327.74
	2077	20.78	-4.23853E-001	7.09546E-005	0.00000E+000	-4.23000E-001	-7.20939E-004	10	..........a	-327.74
	2108	21.09	-3.92881E-001	5.10363E-005	0.00000E+000	-3.92000E-001	-7.97606E-004	10	..........a	-327.74
	2139	21.4	-3.61894E-001	3.78522E-005	0.00000E+000	-3.61000E-001	-7.45939E-004	10	..........a	-327.74
	2170	21.71	-3.30891E-001	2.89793E-005	0.00000E+000	-3.30000E-001	-6.82606E-004	10	..........a	-327.74
	2201	22.02	-2.99886E-001	2.26045E-005	0.00000E+000	-2.99000E-001	-7.39272E-004	10	..........a	-327.74
	2232	22.33	-2.68901E-001	1.87612E-005	0.00000E+000	-2.68000E-001	-7.64272E-004	10	..........a	-327.74
	2263	22.64	-2.37924E-001	1.51602E-005	0.00000E+000	-2.37000E-001	-7.57606E-004	10	..........a	-327.74
	2294	22.95	-2.06869E-001	1.25702E-005	0.00000E+000	-2.06000E-001	-7.19272E-004	10	..........a	-327.74
	2325	23.26	-1.75966E-001	1.10161E-005	0.00000E+000	-1.75000E-001	-7.37606E-004	10	..........a	-327.74
	2356	23.57	-1.44947E-001	9.80467E-006	0.00000E+000	-1.44000E-001	-6.82606E-004	10	..........a	-327.74
	2387	23.88	-1.13942E-001	8.59321E-006	0.00000E+000	-1.13000E-001	-7.55939E-004	10	..........a	-327.74
	2418	24.19	-8.30081E-002	8.66840E-006	0.00000E+000	-8.20000E-002	-7.15939E-004	10	..........a	-327.74
	2449	24.5	-5.19514E-002	9.37022E-006	0.00000E+000	-5.10000E-002	-6.85939E-004	10	..........a	-327.74
	2480	24.81	-2.10048E-002	1.01556E-005	0.00000E+000	-2.00000E-002	-6.92606E-004	10	..........a	-327.74
	2511	25.12	9.99273E-003	9.82974E-006	0.00000E+000	1.10000E-002	-7.14272E-004	10	..........a	-327.74
	2542	25.43	4.10777E-002	7.95823E-006	0.00000E+000	4.20000E-002	-7.24272E-004	10	..........a	-327.74
	2573	25.74	7.19477E-002	6.03659E-006	0.00000E+000	7.30000E-002	-7.37606E-004	10	..........a	-327.74
	2604	26.05	1.02893E-001	4.83348E-006	0.00000E+000	1.04000E-001	-7.80939E-004	10	..........a	-327.74
	2635	26.36	1.33942E-001	3.83089E-006	0.00000E+000	1.35000E-001	-7.79272E-004	10	..........a	-327.74
	2666	26.67	1.64940E-001	3.36301E-006	0.00000E+000	1.66000E-001	-7.49272E-004	10	..........a	-327.74
	2697	26.98	1.95908E-001	3.13743E-006	0.00000E+000	1.97000E-001	-7.90939E-004	10	..........a	-327.74
	2728	27.29	2.26876E-001	2.94526E-006	0.00000E+000	2.28000E-001	-7.32606E-004	10	..........a	-327.74
	2759	27.6	2.57861E-001	2.71968E-006	0.00000E+000	2.59000E-001	-7.75939E-004	10	..........a	-327.74
	2790	27.91	2.88915E-001	2.37712E-006	0.00000E+000	2.90000E-001	-7.57606E-004	10	..........a	-327.74
	2821	28.22	3.19853E-001	2.65284E-006	0.00000E+000	3.21000E-001	-7.55939E-004	10	..........a	-327.74
	2852	28.53	3.50857E-001	2.68626E-006	0.00000E+000	3.52000E-001	-7.80939E-004	10	..........a	-327.74
	2883	28.84	3.81869E-001	2.97868E-006	0.00000E+000	3.83000E-001	-7.49272E-004	10	..........a	-327.74
	2914	29.15	4.12778E-001	2.74474E-006	0.00000E+000	4.14000E-001	-7.79272E-004	10	..........a	-327.74
	2945	29.46	4.43763E-001	2.93691E-006	0.00000E+000	4.45000E-001	-7.67605E-004	10	..........a	-327.74
	2976	29.77	4.74799E-001	2.52751E-006	0.00000E+000	4.76000E-001	-7.35939E-004	10	..........a	-327.74
	3000	30.01	4.98813E-001	2.63613E-006	0.00000E+000	5.00000E-001	-7.89272E-004	10	..........a	-327.74
CURVE2	TABLE
	Pt	T	Vf	Im	Vu	Sig	Ach	IERange	Over	Temp
	#	s	V vs. Ref.	A	V	V	V	#	bits	deg C
	3001	30.02	4.98821E-001	2.28522E-006	0.00000E+000	5.00000E-001	-7.57606E-004	10	..........a	-327.74

File: 1mkcl-18btmapaq-nitrogen-200mvpers.DTA
EXPLAIN
TAG	CV
TITLE	LABEL	Cyclic Voltammetry	Test &Identifier
DATE	LABEL	1/31/2023	Date
TIME	LABEL	15:20:25	Time
NOTES	NOTES	1	&Notes...

PSTAT	PSTAT	REF3000-21108	Potentiostat
VINIT	POTEN	5.00000E-001	F	Initial &E (V)
VLIMIT1	POTEN	-1.00000E+000	F	Scan Limit &1 (V)
VLIMIT2	POTEN	5.00000E-001	F	Scan Limit &2 (V)
VFINAL	POTEN	5.00000E-001	F	Final &E (V)
SCANRATE	QUANT	2.00000E+002	&Scan Rate (mV/s)
STEPSIZE	QUANT	1.00000E+000	St&ep Size (mV)
CYCLES	IQUANT	1	C&ycles (#)
IMODE	SELECTOR	1	I/E Range &Mode
IRANGE	QUANT	1.00000E+001	&Max Current (mA)
AREA	QUANT	1.00000E+000	Electrode &Area (cm^2)
ELECTRODETYPE	SELECTOR	0	Electrode Type
STRIPPING	TOGGLE	F	Used for Stripping
POLARITY	TOGGLE	F	Signal Polarity
CONDIT	TWOPARAM	F	1.50000E+001	0.00000E+000	Conditionin&g	Time(s)	E(V)
DELAY	TWOPARAM	F	5.00000E+000	0.00000E+000	Init. De&lay	Time(s)	Stab.(mV/s)
EQDELAY	QUANT	0.00000E+000	Equil. &Time (s)
IRCOMP	SELECTOR	0	IRCom&p
PFCOR	QUANT	5.00000E+001	PF Corr. (ohm)
SAMPLINGMODE	SELECTOR	1	Sampling &Mode
EOC	QUANT	0	Open Circuit (V)
PSTATMODEL	IQUANT	5	Pstat Model
PSTATSECTION	LABEL	REF3000-21108	Pstat Section
PSTATSERIALNO	LABEL	21108	Pstat Serial Number
CTRLMODE	IQUANT	1	Control Mode
ELECTROMETER	IQUANT	0	RE=0 or CS=1
IESTAB	IQUANT	2	I/E Stability
CASPEED	IQUANT	4	Control Amp Speed
CONVENTION	IQUANT	1	Current Convention
ICHRANGE	IQUANT	2	Ich Range
ICHRANGEMODE	TOGGLE	F	Ich Auto Range
ICHOFFSETENABLE	TOGGLE	F	Ich Offset Enable
ICHOFFSET	QUANT	0	Ich Offset (V)
ICHFILTER	IQUANT	2	Ich Filter
VCHRANGE	IQUANT	2	Vch Range
VCHRANGEMODE	TOGGLE	F	Vch Auto Range
VCHOFFSETENABLE	TOGGLE	F	Vch Offset Enable
VCHOFFSET	QUANT	0	Vch Offset (V)
VCHFILTER	IQUANT	2	Vch Filter
ACHRANGE	IQUANT	2	Ach Range
ACHOFFSETENABLE	TOGGLE	F	Ach Offset Enable
ACHOFFSET	QUANT	0	Ach Offset (V)
ACHFILTER	IQUANT	0	Ach Filter
IERANGELOWERLIMIT	IQUANT	2	I/E Range Lower Limit
IERANGEMODE	TOGGLE	F	I/E AutoRange
IERANGE	IQUANT	10	I/E Range
POSFEEDENABLE	TOGGLE	F	Positive Feedback IR Comp
POSFEEDRESISTANCE	QUANT	0	Positive Feedback Resistance (ohm)
ACHSELECT	IQUANT	0	Ach Select
SENSECABLEID	IQUANT	14	Sense Cable ID
PWRCABLEID	IQUANT	7	Power Cable ID
DCCALDATE	LABEL	11/9/2022	DC Calibration Date
ACCALDATE	LABEL	11/9/2022	AC Calibration Date
THERMOSELECT	IQUANT	1	Thermo Select
FRAMEWORKVERSION	LABEL	7.8.2	Framework Version
INSTRUMENTVERSION	LABEL	4.40	Instrument Version
COMPLIANCEVOLTAGE	IQUANT	0	Compliance Voltage
CURVE1	TABLE
	Pt	T	Vf	Im	Vu	Sig	Ach	IERange	Over	Temp
	#	s	V vs. Ref.	A	V	V	V	#	bits	deg C
	0	0.005	4.98798E-001	4.61625E-006	0.00000E+000	5.00000E-001	-7.59272E-004	10	..........a	-327.74
	31	0.16	4.67829E-001	1.54709E-007	0.00000E+000	4.69000E-001	-7.12606E-004	10	..........a	-327.74
	62	0.315	4.36804E-001	-4.63558E-007	0.00000E+000	4.38000E-001	-7.75939E-004	10	..........a	-327.74
	93	0.47	4.05854E-001	-7.64336E-007	0.00000E+000	4.07000E-001	-7.89272E-004	10	..........a	-327.74
	124	0.625	3.74844E-001	-1.38260E-006	0.00000E+000	3.76000E-001	-7.45939E-004	10	..........a	-327.74
	155	0.78	3.43864E-001	-2.41862E-006	0.00000E+000	3.45000E-001	-7.69272E-004	10	..........a	-327.74
	186	0.935	3.12929E-001	-2.16797E-006	0.00000E+000	3.14000E-001	-7.45939E-004	10	..........a	-327.74
	217	1.09	2.81876E-001	-2.25152E-006	0.00000E+000	2.83000E-001	-7.65939E-004	10	..........a	-327.74
	248	1.245	2.50891E-001	-2.18468E-006	0.00000E+000	2.52000E-001	-7.75939E-004	10	..........a	-327.74
	279	1.4	2.19911E-001	-2.06771E-006	0.00000E+000	2.21000E-001	-7.29272E-004	10	..........a	-327.74
	310	1.555	1.88966E-001	-2.23481E-006	0.00000E+000	1.90000E-001	-7.79272E-004	10	..........a	-327.74
	341	1.71	1.57931E-001	-2.81965E-006	0.00000E+000	1.59000E-001	-7.09272E-004	10	..........a	-327.74
	372	1.865	1.26933E-001	-2.50217E-006	0.00000E+000	1.28000E-001	-7.45939E-004	10	..........a	-327.74
	403	2.02	9.59261E-002	-2.76952E-006	0.00000E+000	9.70000E-002	-7.45939E-004	10	..........a	-327.74
	434	2.175	6.49894E-002	-2.53559E-006	0.00000E+000	6.60000E-002	-7.59272E-004	10	..........a	-327.74
	465	2.33	3.39877E-002	-2.66926E-006	0.00000E+000	3.50000E-002	-7.09272E-004	10	..........a	-327.74
	496	2.485	2.94606E-003	-2.66926E-006	0.00000E+000	4.00001E-003	-7.42605E-004	10	..........a	-327.74
	527	2.64	-2.79273E-002	-2.76952E-006	0.00000E+000	-2.70000E-002	-7.29272E-004	10	..........a	-327.74
	558	2.795	-5.90423E-002	-2.95333E-006	0.00000E+000	-5.80000E-002	-7.25939E-004	10	..........a	-327.74
	589	2.95	-8.99589E-002	-2.95333E-006	0.00000E+000	-8.90000E-002	-7.39272E-004	10	..........a	-327.74
	620	3.105	-1.21011E-001	-3.33766E-006	0.00000E+000	-1.20000E-001	-7.49272E-004	10	..........a	-327.74
	651	3.26	-1.51986E-001	-3.60502E-006	0.00000E+000	-1.51000E-001	-7.19272E-004	10	..........a	-327.74
	682	3.415	-1.82976E-001	-3.87238E-006	0.00000E+000	-1.82000E-001	-7.49272E-004	10	..........a	-327.74
	713	3.57	-2.13939E-001	-4.69116E-006	0.00000E+000	-2.13000E-001	-6.95939E-004	10	..........a	-327.74
	744	3.725	-2.44851E-001	-6.22847E-006	0.00000E+000	-2.44000E-001	-7.22606E-004	10	..........a	-327.74
	775	3.88	-2.75862E-001	-8.81851E-006	0.00000E+000	-2.75000E-001	-7.85939E-004	10	..........a	-327.74
	806	4.035	-3.06899E-001	-1.18096E-005	0.00000E+000	-3.06000E-001	-7.65939E-004	10	..........a	-327.74
	837	4.19	-3.37852E-001	-1.54189E-005	0.00000E+000	-3.37000E-001	-6.95939E-004	10	..........a	-327.74
	868	4.345	-3.68859E-001	-1.70398E-005	0.00000E+000	-3.68000E-001	-7.42605E-004	10	..........a	-327.74
	899	4.5	-3.99857E-001	-1.83599E-005	0.00000E+000	-3.99000E-001	-7.49272E-004	10	..........a	-327.74
	930	4.655	-4.30877E-001	-2.08496E-005	0.00000E+000	-4.30000E-001	-7.52606E-004	10	..........a	-327.74
	961	4.81	-4.61871E-001	-4.28566E-005	0.00000E+000	-4.61000E-001	-7.05939E-004	10	..........a	-327.74
	992	4.965	-4.92837E-001	-1.15962E-004	0.00000E+000	-4.92000E-001	-7.22606E-004	10	..........a	-327.74
	1023	5.12	-5.23852E-001	-2.77213E-004	0.00000E+000	-5.23000E-001	-7.42605E-004	10	..........a	-327.74
	1054	5.275	-5.54796E-001	-4.03022E-004	0.00000E+000	-5.54000E-001	-7.42605E-004	10	..........a	-327.74
	1085	5.43	-5.85824E-001	-3.30802E-004	0.00000E+000	-5.85000E-001	-7.62605E-004	10	..........a	-327.74
	1116	5.585	-6.16706E-001	-2.59350E-004	0.00000E+000	-6.16000E-001	-7.65939E-004	10	..........a	-327.74
	1147	5.74	-6.47769E-001	-2.20616E-004	0.00000E+000	-6.47000E-001	-7.65939E-004	10	..........a	-327.74
	1178	5.895	-6.78726E-001	-1.95769E-004	0.00000E+000	-6.78000E-001	-7.25939E-004	10	..........a	-327.74
	1209	6.05	-7.09741E-001	-1.77756E-004	0.00000E+000	-7.09000E-001	-7.42605E-004	10	..........a	-327.74
	1240	6.205	-7.40727E-001	-1.64705E-004	0.00000E+000	-7.40000E-001	-7.62605E-004	10	..........a	-327.74
	1271	6.36	-7.71701E-001	-1.54245E-004	0.00000E+000	-7.71000E-001	-7.22606E-004	10	..........a	-327.74
	1302	6.515	-8.02672E-001	-1.45673E-004	0.00000E+000	-8.02000E-001	-7.25939E-004	10	..........a	-327.74
	1333	6.67	-8.33621E-001	-1.38755E-004	0.00000E+000	-8.33000E-001	-7.35939E-004	10	..........a	-327.74
	1364	6.825	-8.64617E-001	-1.32773E-004	0.00000E+000	-8.64000E-001	-7.05939E-004	10	..........a	-327.74
	1395	6.98	-8.95616E-001	-1.27793E-004	0.00000E+000	-8.95000E-001	-7.05939E-004	10	..........a	-327.74
	1426	7.135	-9.26674E-001	-1.22981E-004	0.00000E+000	-9.26000E-001	-6.99272E-004	10	..........a	-327.74
[...]
	2015	10.08	-4.85866E-001	2.41212E-004	0.00000E+000	-4.85000E-001	-7.72606E-004	10	..........a	-327.74
	2046	10.235	-4.54869E-001	1.89511E-004	0.00000E+000	-4.54000E-001	-7.39272E-004	10	..........a	-327.74
	2077	10.39	-4.23846E-001	1.41320E-004	0.00000E+000	-4.23000E-001	-7.42605E-004	10	..........a	-327.74
	2108	10.545	-3.92932E-001	1.08268E-004	0.00000E+000	-3.92000E-001	-7.75939E-004	10	..........a	-327.74
	2139	10.7	-3.61859E-001	8.72968E-005	0.00000E+000	-3.61000E-001	-7.65939E-004	10	..........a	-327.74
	2170	10.855	-3.30917E-001	7.27258E-005	0.00000E+000	-3.30000E-001	-7.55939E-004	10	..........a	-327.74
	2201	11.01	-2.99884E-001	6.16973E-005	0.00000E+000	-2.99000E-001	-7.92605E-004	10	..........a	-327.74
	2232	11.165	-2.68894E-001	5.36932E-005	0.00000E+000	-2.68000E-001	-7.29272E-004	10	..........a	-327.74
	2263	11.32	-2.37934E-001	4.71764E-005	0.00000E+000	-2.37000E-001	-7.35939E-004	10	..........a	-327.74
	2294	11.475	-2.06959E-001	4.18125E-005	0.00000E+000	-2.06000E-001	-7.69272E-004	10	..........a	-327.74
	2325	11.63	-1.75987E-001	3.73844E-005	0.00000E+000	-1.75000E-001	-7.42605E-004	10	..........a	-327.74
	2356	11.785	-1.44946E-001	3.39755E-005	0.00000E+000	-1.44000E-001	-7.69272E-004	10	..........a	-327.74
	2387	11.94	-1.14031E-001	3.13354E-005	0.00000E+000	-1.13000E-001	-7.89272E-004	10	..........a	-327.74
	2418	12.095	-8.29939E-002	2.92968E-005	0.00000E+000	-8.20000E-002	-8.12605E-004	10	..........a	-327.74
	2449	12.25	-5.19273E-002	2.85281E-005	0.00000E+000	-5.10000E-002	-7.62605E-004	10	..........a	-327.74
	2480	12.405	-2.10656E-002	2.83276E-005	0.00000E+000	-2.00000E-002	-7.59272E-004	10	..........a	-327.74
	2511	12.56	1.00027E-002	2.85114E-005	0.00000E+000	1.10000E-002	-7.72606E-004	10	..........a	-327.74
	2542	12.715	4.09661E-002	2.74587E-005	0.00000E+000	4.20000E-002	-7.99272E-004	10	..........a	-327.74
	2573	12.87	7.19444E-002	2.47016E-005	0.00000E+000	7.30000E-002	-7.85939E-004	10	..........a	-327.74
	2604	13.025	1.02886E-001	2.18442E-005	0.00000E+000	1.04000E-001	-7.35939E-004	10	..........a	-327.74
	2635	13.18	1.33944E-001	1.91204E-005	0.00000E+000	1.35000E-001	-7.69272E-004	10	..........a	-327.74
	2666	13.335	1.64963E-001	1.65805E-005	0.00000E+000	1.66000E-001	-7.99272E-004	10	..........a	-327.74
	2697	13.49	1.95944E-001	1.47090E-005	0.00000E+000	1.97000E-001	-7.49272E-004	10	..........a	-327.74
	2728	13.645	2.26878E-001	1.32386E-005	0.00000E+000	2.28000E-001	-7.29272E-004	10	..........a	-327.74
	2759	13.8	2.57859E-001	1.16344E-005	0.00000E+000	2.59000E-001	-7.12606E-004	10	..........a	-327.74
	2790	13.955	2.88903E-001	1.11164E-005	0.00000E+000	2.90000E-001	-7.99272E-004	10	..........a	-327.74
	2821	14.11	3.19879E-001	1.02976E-005	0.00000E+000	3.21000E-001	-7.62605E-004	10	..........a	-327.74
	2852	14.265	3.50866E-001	1.01305E-005	0.00000E+000	3.52000E-001	-7.29272E-004	10	..........a	-327.74
	2883	14.42	3.81821E-001	9.87987E-006	0.00000E+000	3.83000E-001	-7.82606E-004	10	..........a	-327.74
	2914	14.575	4.12809E-001	8.87728E-006	0.00000E+000	4.14000E-001	-7.39272E-004	10	..........a	-327.74
	2945	14.73	4.43846E-001	8.34256E-006	0.00000E+000	4.45000E-001	-8.22606E-004	10	..........a	-327.74
	2976	14.885	4.74749E-001	7.84126E-006	0.00000E+000	4.76000E-001	-7.62605E-004	10	..........a	-327.74
	3000	15.005	4.98794E-001	7.30655E-006	0.00000E+000	5.00000E-001	-7.35939E-004	10	..........a	-327.74
CURVE2	TABLE
	Pt	T	Vf	Im	Vu	Sig	Ach	IERange	Over	Temp
	#	s	V vs. Ref.	A	V	V	V	#	bits	deg C
	3001	15.01	4.98784E-001	7.12274E-006	0.00000E+000	5.00000E-001	-7.45939E-004	10	..........a	-327.74