Folder: 2024-09-QuCO2-NCE/data/02-SI/Figures_S9_S11_RDE/18btmapaq-rde (part 7)

File: 1mkcl-18btmapaq-nitrogen-700mvpers.DTA
EXPLAIN
TAG	CV
TITLE	LABEL	Cyclic Voltammetry	Test &Identifier
DATE	LABEL	1/31/2023	Date
TIME	LABEL	15:21:55	Time
NOTES	NOTES	1	&Notes...

PSTAT	PSTAT	REF3000-21108	Potentiostat
VINIT	POTEN	5.00000E-001	F	Initial &E (V)
VLIMIT1	POTEN	-1.00000E+000	F	Scan Limit &1 (V)
VLIMIT2	POTEN	5.00000E-001	F	Scan Limit &2 (V)
VFINAL	POTEN	5.00000E-001	F	Final &E (V)
SCANRATE	QUANT	6.97673E+002	&Scan Rate (mV/s)
STEPSIZE	QUANT	1.00000E+000	St&ep Size (mV)
CYCLES	IQUANT	1	C&ycles (#)
IMODE	SELECTOR	1	I/E Range &Mode
IRANGE	QUANT	1.00000E+001	&Max Current (mA)
AREA	QUANT	1.00000E+000	Electrode &Area (cm^2)
ELECTRODETYPE	SELECTOR	0	Electrode Type
STRIPPING	TOGGLE	F	Used for Stripping
POLARITY	TOGGLE	F	Signal Polarity
CONDIT	TWOPARAM	F	1.50000E+001	0.00000E+000	Conditionin&g	Time(s)	E(V)
DELAY	TWOPARAM	F	5.00000E+000	0.00000E+000	Init. De&lay	Time(s)	Stab.(mV/s)
EQDELAY	QUANT	0.00000E+000	Equil. &Time (s)
IRCOMP	SELECTOR	0	IRCom&p
PFCOR	QUANT	5.00000E+001	PF Corr. (ohm)
SAMPLINGMODE	SELECTOR	1	Sampling &Mode
EOC	QUANT	0	Open Circuit (V)
PSTATMODEL	IQUANT	5	Pstat Model
PSTATSECTION	LABEL	REF3000-21108	Pstat Section
PSTATSERIALNO	LABEL	21108	Pstat Serial Number
CTRLMODE	IQUANT	1	Control Mode
ELECTROMETER	IQUANT	0	RE=0 or CS=1
IESTAB	IQUANT	2	I/E Stability
CASPEED	IQUANT	4	Control Amp Speed
CONVENTION	IQUANT	1	Current Convention
ICHRANGE	IQUANT	2	Ich Range
ICHRANGEMODE	TOGGLE	F	Ich Auto Range
ICHOFFSETENABLE	TOGGLE	F	Ich Offset Enable
ICHOFFSET	QUANT	0	Ich Offset (V)
ICHFILTER	IQUANT	1	Ich Filter
VCHRANGE	IQUANT	2	Vch Range
VCHRANGEMODE	TOGGLE	F	Vch Auto Range
VCHOFFSETENABLE	TOGGLE	F	Vch Offset Enable
VCHOFFSET	QUANT	0	Vch Offset (V)
VCHFILTER	IQUANT	1	Vch Filter
ACHRANGE	IQUANT	2	Ach Range
ACHOFFSETENABLE	TOGGLE	F	Ach Offset Enable
ACHOFFSET	QUANT	0	Ach Offset (V)
ACHFILTER	IQUANT	0	Ach Filter
IERANGELOWERLIMIT	IQUANT	2	I/E Range Lower Limit
IERANGEMODE	TOGGLE	F	I/E AutoRange
IERANGE	IQUANT	10	I/E Range
POSFEEDENABLE	TOGGLE	F	Positive Feedback IR Comp
POSFEEDRESISTANCE	QUANT	0	Positive Feedback Resistance (ohm)
ACHSELECT	IQUANT	0	Ach Select
SENSECABLEID	IQUANT	14	Sense Cable ID
PWRCABLEID	IQUANT	7	Power Cable ID
DCCALDATE	LABEL	11/9/2022	DC Calibration Date
ACCALDATE	LABEL	11/9/2022	AC Calibration Date
THERMOSELECT	IQUANT	1	Thermo Select
FRAMEWORKVERSION	LABEL	7.8.2	Framework Version
INSTRUMENTVERSION	LABEL	4.40	Instrument Version
COMPLIANCEVOLTAGE	IQUANT	0	Compliance Voltage
CURVE1	TABLE
	Pt	T	Vf	Im	Vu	Sig	Ach	IERange	Over	Temp
	#	s	V vs. Ref.	A	V	V	V	#	bits	deg C
	0	0.001433	4.98762E-001	2.01004E-005	0.00000E+000	5.00000E-001	-7.84828E-004	10	..........a	-327.74
	32	0.0473	4.66703E-001	6.94870E-006	0.00000E+000	4.67900E-001	-8.51494E-004	10	..........a	-327.74
	64	0.093167	4.34632E-001	1.11006E-006	0.00000E+000	4.35800E-001	-9.29272E-004	10	..........a	-327.74
	96	0.139033	4.02585E-001	-2.46389E-007	0.00000E+000	4.03700E-001	-8.29272E-004	10	..........a	-327.74
	128	0.1849	3.70338E-001	-3.90291E-006	0.00000E+000	3.71550E-001	-8.29272E-004	10	..........a	-327.74
	160	0.230767	3.38291E-001	-5.14141E-006	0.00000E+000	3.39450E-001	-8.07050E-004	10	..........a	-327.74
	192	0.276633	3.06173E-001	-4.07984E-006	0.00000E+000	3.07350E-001	-8.40383E-004	10	..........a	-327.74
	224	0.3225	2.74132E-001	-5.14141E-006	0.00000E+000	2.75250E-001	-7.73717E-004	10	..........a	-327.74
	256	0.368367	2.41973E-001	-6.26195E-006	0.00000E+000	2.43150E-001	-8.40383E-004	10	..........a	-327.74
	288	0.414233	2.09885E-001	-5.25936E-006	0.00000E+000	2.11050E-001	-8.51494E-004	10	..........a	-327.74
	320	0.4601	1.77838E-001	-4.84653E-006	0.00000E+000	1.78950E-001	-8.29272E-004	10	..........a	-327.74
	352	0.505967	1.45762E-001	-5.08243E-006	0.00000E+000	1.46850E-001	-8.40383E-004	10	..........a	-327.74
	384	0.551833	1.13626E-001	-5.08243E-006	0.00000E+000	1.14700E-001	-8.62605E-004	10	..........a	-327.74
	416	0.5977	8.15086E-002	-5.67219E-006	0.00000E+000	8.26000E-002	-7.84828E-004	10	..........a	-327.74
	448	0.643567	4.94263E-002	-7.08762E-006	0.00000E+000	5.05000E-002	-7.84828E-004	10	..........a	-327.74
	480	0.689433	1.73792E-002	-7.79533E-006	0.00000E+000	1.84000E-002	-7.84828E-004	10	..........a	-327.74
	512	0.7353	-1.47737E-002	-7.32352E-006	0.00000E+000	-1.37000E-002	-8.07050E-004	10	..........a	-327.74
	544	0.781167	-4.68090E-002	-6.49786E-006	0.00000E+000	-4.58000E-002	-8.07050E-004	10	..........a	-327.74
	576	0.827033	-7.88914E-002	-6.67479E-006	0.00000E+000	-7.79000E-002	-8.07050E-004	10	..........a	-327.74
	608	0.8729	-1.11074E-001	-7.08762E-006	0.00000E+000	-1.10050E-001	-8.29272E-004	10	..........a	-327.74
	640	0.918767	-1.43144E-001	-7.44147E-006	0.00000E+000	-1.42150E-001	-7.73717E-004	10	..........a	-327.74
	672	0.96463	-1.75221E-001	-8.09021E-006	0.00000E+000	-1.74250E-001	-8.62605E-004	10	..........a	-327.74
	704	1.0105	-2.07356E-001	-8.67997E-006	0.00000E+000	-2.06350E-001	-8.07050E-004	10	..........a	-327.74
	736	1.05637	-2.39456E-001	-9.91847E-006	0.00000E+000	-2.38450E-001	-7.95939E-004	10	..........a	-327.74
	768	1.10223	-2.71468E-001	-1.23955E-005	0.00000E+000	-2.70550E-001	-7.84828E-004	10	..........a	-327.74
	800	1.1481	-3.03585E-001	-1.56392E-005	0.00000E+000	-3.02650E-001	-7.95939E-004	10	..........a	-327.74
	832	1.19397	-3.35674E-001	-2.05931E-005	0.00000E+000	-3.34750E-001	-7.84828E-004	10	..........a	-327.74
	864	1.23983	-3.67856E-001	-2.72574E-005	0.00000E+000	-3.66900E-001	-8.07050E-004	10	..........a	-327.74
	896	1.2857	-3.99897E-001	-3.49243E-005	0.00000E+000	-3.99000E-001	-7.51494E-004	10	..........a	-327.74
	928	1.33157	-4.32021E-001	-4.77811E-005	0.00000E+000	-4.31100E-001	-7.62605E-004	10	..........a	-327.74
	960	1.37743	-4.64085E-001	-9.45492E-005	0.00000E+000	-4.63200E-001	-8.29272E-004	10	..........a	-327.74
	992	1.4233	-4.96174E-001	-2.30666E-004	0.00000E+000	-4.95300E-001	-8.51494E-004	10	..........a	-327.74
	1024	1.46917	-5.28268E-001	-4.96943E-004	0.00000E+000	-5.27400E-001	-8.95939E-004	10	..........a	-327.74
	1056	1.51503	-5.60338E-001	-7.09788E-004	0.00000E+000	-5.59500E-001	-7.73717E-004	10	..........a	-327.74
	1088	1.5609	-5.92462E-001	-6.31586E-004	0.00000E+000	-5.91650E-001	-8.29272E-004	10	..........a	-327.74
	1120	1.60677	-6.24538E-001	-4.92756E-004	0.00000E+000	-6.23750E-001	-8.62605E-004	10	..........a	-327.74
	1152	1.65263	-6.56609E-001	-4.17090E-004	0.00000E+000	-6.55850E-001	-8.62605E-004	10	..........a	-327.74
	1184	1.6985	-6.88674E-001	-3.67609E-004	0.00000E+000	-6.87950E-001	-8.73717E-004	10	..........a	-327.74
	1216	1.74437	-7.20738E-001	-3.32105E-004	0.00000E+000	-7.20050E-001	-8.51494E-004	10	..........a	-327.74
	1248	1.79023	-7.52944E-001	-3.04504E-004	0.00000E+000	-7.52150E-001	-8.62605E-004	10	..........a	-327.74
	1280	1.8361	-7.85050E-001	-2.83922E-004	0.00000E+000	-7.84250E-001	-8.73717E-004	10	..........a	-327.74
	1312	1.88197	-8.17121E-001	-2.65934E-004	0.00000E+000	-8.16350E-001	-7.95939E-004	10	..........a	-327.74
	1344	1.92783	-8.49180E-001	-2.52192E-004	0.00000E+000	-8.48500E-001	-8.07050E-004	10	..........a	-327.74
	1376	1.9737	-8.81221E-001	-2.39866E-004	0.00000E+000	-8.80600E-001	-8.40383E-004	10	..........a	-327.74
	1408	2.01957	-9.13332E-001	-2.28189E-004	0.00000E+000	-9.12700E-001	-8.29272E-004	10	..........a	-327.74
	1440	2.06543	-9.45474E-001	-2.20286E-004	0.00000E+000	-9.44800E-001	-8.40383E-004	10	..........a	-327.74
[...]
	1984	2.84517	-5.10244E-001	4.61419E-004	0.00000E+000	-5.09350E-001	-8.29272E-004	10	..........a	-327.74
	2016	2.89103	-4.78091E-001	5.10133E-004	0.00000E+000	-4.77250E-001	-9.07050E-004	10	..........a	-327.74
	2048	2.9369	-4.46044E-001	3.93360E-004	0.00000E+000	-4.45150E-001	-8.29272E-004	10	..........a	-327.74
	2080	2.98277	-4.13897E-001	2.99175E-004	0.00000E+000	-4.13050E-001	-8.84828E-004	10	..........a	-327.74
	2112	3.02863	-3.81862E-001	2.40317E-004	0.00000E+000	-3.80950E-001	-8.73717E-004	10	..........a	-327.74
	2144	3.0745	-3.49732E-001	2.03339E-004	0.00000E+000	-3.48800E-001	-8.95939E-004	10	..........a	-327.74
	2176	3.12037	-3.17621E-001	1.76623E-004	0.00000E+000	-3.16700E-001	-8.62605E-004	10	..........a	-327.74
	2208	3.16623	-2.85509E-001	1.57928E-004	0.00000E+000	-2.84600E-001	-8.29272E-004	10	..........a	-327.74
	2240	3.2121	-2.53403E-001	1.42122E-004	0.00000E+000	-2.52500E-001	-8.40383E-004	10	..........a	-327.74
	2272	3.25797	-2.21338E-001	1.31093E-004	0.00000E+000	-2.20400E-001	-8.07050E-004	10	..........a	-327.74
	2304	3.30383	-1.89309E-001	1.20065E-004	0.00000E+000	-1.88300E-001	-8.18161E-004	10	..........a	-327.74
	2336	3.3497	-1.57115E-001	1.11101E-004	0.00000E+000	-1.56200E-001	-8.29272E-004	10	..........a	-327.74
	2368	3.39557	-1.25091E-001	1.03434E-004	0.00000E+000	-1.24050E-001	-8.29272E-004	10	..........a	-327.74
	2400	3.44143	-9.29855E-002	9.68873E-005	0.00000E+000	-9.19500E-002	-8.62605E-004	10	..........a	-327.74
	2432	3.4873	-6.08678E-002	9.16384E-005	0.00000E+000	-5.98500E-002	-7.95939E-004	10	..........a	-327.74
	2464	3.53317	-2.88208E-002	8.75101E-005	0.00000E+000	-2.77500E-002	-8.40383E-004	10	..........a	-327.74
	2496	3.57903	3.27336E-003	8.41484E-005	0.00000E+000	4.35001E-003	-8.51494E-004	10	..........a	-327.74
	2528	3.6249	3.53734E-002	8.09047E-005	0.00000E+000	3.64500E-002	-8.95939E-004	10	..........a	-327.74
	2560	3.67077	6.74851E-002	7.63636E-005	0.00000E+000	6.85500E-002	-8.73717E-004	10	..........a	-327.74
	2592	3.71663	9.95910E-002	7.30609E-005	0.00000E+000	1.00650E-001	-7.62605E-004	10	..........a	-327.74
	2624	3.7625	1.31750E-001	6.92865E-005	0.00000E+000	1.32800E-001	-8.29272E-004	10	..........a	-327.74
	2656	3.80837	1.63815E-001	6.44504E-005	0.00000E+000	1.64900E-001	-8.40383E-004	10	..........a	-327.74
	2688	3.85423	1.95803E-001	6.07349E-005	0.00000E+000	1.97000E-001	-7.73717E-004	10	..........a	-327.74
	2720	3.9001	2.27944E-001	5.90246E-005	0.00000E+000	2.29100E-001	-7.95939E-004	10	..........a	-327.74
	2752	3.94597	2.60044E-001	5.64297E-005	0.00000E+000	2.61200E-001	-8.18161E-004	10	..........a	-327.74
	2784	3.99183	2.92191E-001	5.37168E-005	0.00000E+000	2.93300E-001	-8.73717E-004	10	..........a	-327.74
	2816	4.0377	3.24250E-001	5.16526E-005	0.00000E+000	3.25400E-001	-8.62605E-004	10	..........a	-327.74
	2848	4.08357	3.56367E-001	5.08269E-005	0.00000E+000	3.57550E-001	-8.40383E-004	10	..........a	-327.74
	2880	4.12943	3.88426E-001	4.99423E-005	0.00000E+000	3.89650E-001	-8.84828E-004	10	..........a	-327.74
	2912	4.1753	4.20526E-001	5.01192E-005	0.00000E+000	4.21750E-001	-8.51494E-004	10	..........a	-327.74
	2944	4.22117	4.52579E-001	4.76422E-005	0.00000E+000	4.53850E-001	-9.07050E-004	10	..........a	-327.74
	2976	4.26703	4.84732E-001	4.71704E-005	0.00000E+000	4.85950E-001	-8.62605E-004	10	..........a	-327.74
	2990	4.2871	4.98797E-001	4.59319E-005	0.00000E+000	5.00000E-001	-8.73717E-004	10	..........a	-327.74
CURVE2	TABLE
	Pt	T	Vf	Im	Vu	Sig	Ach	IERange	Over	Temp
	#	s	V vs. Ref.	A	V	V	V	#	bits	deg C
	2991	4.28853	4.98744E-001	4.43396E-005	0.00000E+000	5.00000E-001	-8.84828E-004	10	..........a	-327.74

File: 1mkcl-18btmapaq-nitrogen-800mvpers.DTA
EXPLAIN
TAG	CV
TITLE	LABEL	Cyclic Voltammetry	Test &Identifier
DATE	LABEL	1/31/2023	Date
TIME	LABEL	15:22:08	Time
NOTES	NOTES	1	&Notes...

PSTAT	PSTAT	REF3000-21108	Potentiostat
VINIT	POTEN	5.00000E-001	F	Initial &E (V)
VLIMIT1	POTEN	-1.00000E+000	F	Scan Limit &1 (V)
VLIMIT2	POTEN	5.00000E-001	F	Scan Limit &2 (V)
VFINAL	POTEN	5.00000E-001	F	Final &E (V)
SCANRATE	QUANT	7.99998E+002	&Scan Rate (mV/s)
STEPSIZE	QUANT	1.00000E+000	St&ep Size (mV)
CYCLES	IQUANT	1	C&ycles (#)
IMODE	SELECTOR	1	I/E Range &Mode
IRANGE	QUANT	1.00000E+001	&Max Current (mA)
AREA	QUANT	1.00000E+000	Electrode &Area (cm^2)
ELECTRODETYPE	SELECTOR	0	Electrode Type
STRIPPING	TOGGLE	F	Used for Stripping
POLARITY	TOGGLE	F	Signal Polarity
CONDIT	TWOPARAM	F	1.50000E+001	0.00000E+000	Conditionin&g	Time(s)	E(V)
DELAY	TWOPARAM	F	5.00000E+000	0.00000E+000	Init. De&lay	Time(s)	Stab.(mV/s)
EQDELAY	QUANT	0.00000E+000	Equil. &Time (s)
IRCOMP	SELECTOR	0	IRCom&p
PFCOR	QUANT	5.00000E+001	PF Corr. (ohm)
SAMPLINGMODE	SELECTOR	1	Sampling &Mode
EOC	QUANT	0	Open Circuit (V)
PSTATMODEL	IQUANT	5	Pstat Model
PSTATSECTION	LABEL	REF3000-21108	Pstat Section
PSTATSERIALNO	LABEL	21108	Pstat Serial Number
CTRLMODE	IQUANT	1	Control Mode
ELECTROMETER	IQUANT	0	RE=0 or CS=1
IESTAB	IQUANT	2	I/E Stability
CASPEED	IQUANT	4	Control Amp Speed
CONVENTION	IQUANT	1	Current Convention
ICHRANGE	IQUANT	2	Ich Range
ICHRANGEMODE	TOGGLE	F	Ich Auto Range
ICHOFFSETENABLE	TOGGLE	F	Ich Offset Enable
ICHOFFSET	QUANT	0	Ich Offset (V)
ICHFILTER	IQUANT	1	Ich Filter
VCHRANGE	IQUANT	2	Vch Range
VCHRANGEMODE	TOGGLE	F	Vch Auto Range
VCHOFFSETENABLE	TOGGLE	F	Vch Offset Enable
VCHOFFSET	QUANT	0	Vch Offset (V)
VCHFILTER	IQUANT	1	Vch Filter
ACHRANGE	IQUANT	2	Ach Range
ACHOFFSETENABLE	TOGGLE	F	Ach Offset Enable
ACHOFFSET	QUANT	0	Ach Offset (V)
ACHFILTER	IQUANT	0	Ach Filter
IERANGELOWERLIMIT	IQUANT	2	I/E Range Lower Limit
IERANGEMODE	TOGGLE	F	I/E AutoRange
IERANGE	IQUANT	10	I/E Range
POSFEEDENABLE	TOGGLE	F	Positive Feedback IR Comp
POSFEEDRESISTANCE	QUANT	0	Positive Feedback Resistance (ohm)
ACHSELECT	IQUANT	0	Ach Select
SENSECABLEID	IQUANT	14	Sense Cable ID
PWRCABLEID	IQUANT	7	Power Cable ID
DCCALDATE	LABEL	11/9/2022	DC Calibration Date
ACCALDATE	LABEL	11/9/2022	AC Calibration Date
THERMOSELECT	IQUANT	1	Thermo Select
FRAMEWORKVERSION	LABEL	7.8.2	Framework Version
INSTRUMENTVERSION	LABEL	4.40	Instrument Version
COMPLIANCEVOLTAGE	IQUANT	0	Compliance Voltage
CURVE1	TABLE
	Pt	T	Vf	Im	Vu	Sig	Ach	IERange	Over	Temp
	#	s	V vs. Ref.	A	V	V	V	#	bits	deg C
	0	0.00125	4.98631E-001	1.27480E-005	0.00000E+000	5.00000E-001	-6.29272E-004	10	..........a	-327.74
	32	0.04125	4.66684E-001	1.82171E-007	0.00000E+000	4.68000E-001	-6.29272E-004	10	..........a	-327.74
	64	0.08125	4.34651E-001	-3.36033E-006	0.00000E+000	4.36000E-001	-6.66772E-004	10	..........a	-327.74
	96	0.12125	4.02704E-001	-8.37330E-006	0.00000E+000	4.04000E-001	-6.54272E-004	10	..........a	-327.74
	128	0.16125	3.70671E-001	-9.84377E-006	0.00000E+000	3.72000E-001	-6.91772E-004	10	..........a	-327.74
	160	0.20125	3.38711E-001	-1.15816E-005	0.00000E+000	3.40000E-001	-6.29272E-004	10	..........a	-327.74
	192	0.24125	3.06704E-001	-1.21163E-005	0.00000E+000	3.08000E-001	-6.29272E-004	10	..........a	-327.74
	224	0.28125	2.74691E-001	-1.14479E-005	0.00000E+000	2.76000E-001	-6.29272E-004	10	..........a	-327.74
	256	0.32125	2.42671E-001	-1.27179E-005	0.00000E+000	2.44000E-001	-6.41772E-004	10	..........a	-327.74
	288	0.36125	2.10778E-001	-1.17153E-005	0.00000E+000	2.12000E-001	-6.29272E-004	10	..........a	-327.74
	320	0.40125	1.78758E-001	-1.22500E-005	0.00000E+000	1.80000E-001	-6.29272E-004	10	..........a	-327.74
	352	0.44125	1.46758E-001	-1.30521E-005	0.00000E+000	1.48000E-001	-6.66772E-004	10	..........a	-327.74
	384	0.48125	1.14818E-001	-1.31189E-005	0.00000E+000	1.16000E-001	-6.29272E-004	10	..........a	-327.74
	416	0.52125	8.28310E-002	-1.23837E-005	0.00000E+000	8.40000E-002	-6.29272E-004	10	..........a	-327.74
	448	0.56125	5.08310E-002	-1.24505E-005	0.00000E+000	5.20000E-002	-6.29272E-004	10	..........a	-327.74
	480	0.60125	1.88443E-002	-1.28516E-005	0.00000E+000	2.00000E-002	-6.29272E-004	10	..........a	-327.74
	512	0.64125	-1.32090E-002	-1.23168E-005	0.00000E+000	-1.20000E-002	-6.29272E-004	10	..........a	-327.74
	544	0.68125	-4.51757E-002	-1.33863E-005	0.00000E+000	-4.40000E-002	-6.29272E-004	10	..........a	-327.74
	576	0.72125	-7.71357E-002	-1.37205E-005	0.00000E+000	-7.60000E-002	-6.54272E-004	10	..........a	-327.74
	608	0.76125	-1.09136E-001	-1.42552E-005	0.00000E+000	-1.08000E-001	-6.66772E-004	10	..........a	-327.74
	640	0.80125	-1.41129E-001	-1.29852E-005	0.00000E+000	-1.40000E-001	-6.29272E-004	10	..........a	-327.74
	672	0.84125	-1.73122E-001	-1.45894E-005	0.00000E+000	-1.72000E-001	-6.29272E-004	10	..........a	-327.74
	704	0.88125	-2.05116E-001	-1.53915E-005	0.00000E+000	-2.04000E-001	-6.66772E-004	10	..........a	-327.74
	736	0.92125	-2.37076E-001	-1.60599E-005	0.00000E+000	-2.36000E-001	-6.29272E-004	10	..........a	-327.74
	768	0.96125	-2.69076E-001	-1.80650E-005	0.00000E+000	-2.68000E-001	-6.41772E-004	10	..........a	-327.74
	800	1.00125	-3.01076E-001	-2.14070E-005	0.00000E+000	-3.00000E-001	-6.41772E-004	10	..........a	-327.74
	832	1.04125	-3.33029E-001	-2.44148E-005	0.00000E+000	-3.32000E-001	-6.29272E-004	10	..........a	-327.74
	864	1.08125	-3.65029E-001	-2.94946E-005	0.00000E+000	-3.64000E-001	-6.41772E-004	10	..........a	-327.74
	896	1.12125	-3.97036E-001	-3.65128E-005	0.00000E+000	-3.96000E-001	-6.29272E-004	10	..........a	-327.74
	928	1.16125	-4.29049E-001	-5.06159E-005	0.00000E+000	-4.28000E-001	-6.29272E-004	10	..........a	-327.74
	960	1.20125	-4.60942E-001	-9.63342E-005	0.00000E+000	-4.60000E-001	-6.41772E-004	10	..........a	-327.74
	992	1.24125	-4.92996E-001	-2.29211E-004	0.00000E+000	-4.92000E-001	-6.16772E-004	10	..........a	-327.74
	1024	1.28125	-5.24929E-001	-4.96770E-004	0.00000E+000	-5.24000E-001	-6.29272E-004	10	..........a	-327.74
	1056	1.32125	-5.57009E-001	-7.48154E-004	0.00000E+000	-5.56000E-001	-6.29272E-004	10	..........a	-327.74
	1088	1.36125	-5.88962E-001	-7.12863E-004	0.00000E+000	-5.88000E-001	-6.16772E-004	10	..........a	-327.74
	1120	1.40125	-6.20882E-001	-5.56525E-004	0.00000E+000	-6.20000E-001	-6.16772E-004	10	..........a	-327.74
	1152	1.44125	-6.52856E-001	-4.65556E-004	0.00000E+000	-6.52000E-001	-6.66772E-004	10	..........a	-327.74
	1184	1.48125	-6.84889E-001	-4.10280E-004	0.00000E+000	-6.84000E-001	-6.29272E-004	10	..........a	-327.74
	1216	1.52125	-7.16916E-001	-3.69040E-004	0.00000E+000	-7.16000E-001	-6.29272E-004	10	..........a	-327.74
	1248	1.56125	-7.48862E-001	-3.38427E-004	0.00000E+000	-7.48000E-001	-6.29272E-004	10	..........a	-327.74
	1280	1.60125	-7.80896E-001	-3.13763E-004	0.00000E+000	-7.80000E-001	-6.29272E-004	10	..........a	-327.74
	1312	1.64125	-8.12882E-001	-2.94046E-004	0.00000E+000	-8.12000E-001	-6.41772E-004	10	..........a	-327.74
	1344	1.68125	-8.44822E-001	-2.78539E-004	0.00000E+000	-8.44000E-001	-6.29272E-004	10	..........a	-327.74
	1376	1.72125	-8.76796E-001	-2.66642E-004	0.00000E+000	-8.76000E-001	-6.29272E-004	10	..........a	-327.74
	1408	1.76125	-9.08769E-001	-2.54209E-004	0.00000E+000	-9.08000E-001	-6.29272E-004	10	..........a	-327.74
	1440	1.80125	-9.40756E-001	-2.44183E-004	0.00000E+000	-9.40000E-001	-6.79272E-004	10	..........a	-327.74
[...]
	1984	2.48125	-5.17009E-001	4.27287E-004	0.00000E+000	-5.16000E-001	-6.29272E-004	10	..........a	-327.74
	2016	2.52125	-4.84996E-001	5.65712E-004	0.00000E+000	-4.84000E-001	-6.66772E-004	10	..........a	-327.74
	2048	2.56125	-4.53049E-001	4.50748E-004	0.00000E+000	-4.52000E-001	-6.29272E-004	10	..........a	-327.74
	2080	2.60125	-4.20996E-001	3.38190E-004	0.00000E+000	-4.20000E-001	-6.29272E-004	10	..........a	-327.74
	2112	2.64125	-3.89042E-001	2.67674E-004	0.00000E+000	-3.88000E-001	-6.29272E-004	10	..........a	-327.74
	2144	2.68125	-3.57016E-001	2.24630E-004	0.00000E+000	-3.56000E-001	-6.29272E-004	10	..........a	-327.74
	2176	2.72125	-3.25056E-001	1.94685E-004	0.00000E+000	-3.24000E-001	-6.66772E-004	10	..........a	-327.74
	2208	2.76125	-2.93036E-001	1.72027E-004	0.00000E+000	-2.92000E-001	-6.79272E-004	10	..........a	-327.74
	2240	2.80125	-2.61062E-001	1.55517E-004	0.00000E+000	-2.60000E-001	-6.29272E-004	10	..........a	-327.74
	2272	2.84125	-2.29036E-001	1.42149E-004	0.00000E+000	-2.28000E-001	-6.29272E-004	10	..........a	-327.74
	2304	2.88125	-1.97076E-001	1.30854E-004	0.00000E+000	-1.96000E-001	-6.54272E-004	10	..........a	-327.74
	2336	2.92125	-1.65116E-001	1.19224E-004	0.00000E+000	-1.64000E-001	-6.29272E-004	10	..........a	-327.74
	2368	2.96125	-1.33136E-001	1.11336E-004	0.00000E+000	-1.32000E-001	-6.29272E-004	10	..........a	-327.74
	2400	3.00125	-1.01142E-001	1.03115E-004	0.00000E+000	-1.00000E-001	-6.54272E-004	10	..........a	-327.74
	2432	3.04125	-6.91490E-002	9.85032E-005	0.00000E+000	-6.80000E-002	-6.29272E-004	10	..........a	-327.74
	2464	3.08125	-3.71757E-002	9.16187E-005	0.00000E+000	-3.60000E-002	-6.79272E-004	10	..........a	-327.74
	2496	3.12125	-5.18233E-003	8.74078E-005	0.00000E+000	-4.00001E-003	-6.29272E-004	10	..........a	-327.74
	2528	3.16125	2.67310E-002	8.39322E-005	0.00000E+000	2.80000E-002	-6.29272E-004	10	..........a	-327.74
	2560	3.20125	5.87910E-002	8.04565E-005	0.00000E+000	6.00000E-002	-6.29272E-004	10	..........a	-327.74
	2592	3.24125	9.08377E-002	7.63793E-005	0.00000E+000	9.20000E-002	-7.04272E-004	10	..........a	-327.74
	2624	3.28125	1.22838E-001	7.29705E-005	0.00000E+000	1.24000E-001	-6.54272E-004	10	..........a	-327.74
	2656	3.32125	1.54744E-001	6.76233E-005	0.00000E+000	1.56000E-001	-6.29272E-004	10	..........a	-327.74
	2688	3.36125	1.86724E-001	6.48829E-005	0.00000E+000	1.88000E-001	-6.04272E-004	10	..........a	-327.74
	2720	3.40125	2.18778E-001	6.09394E-005	0.00000E+000	2.20000E-001	-6.54272E-004	10	..........a	-327.74
	2752	3.44125	2.50764E-001	5.77311E-005	0.00000E+000	2.52000E-001	-6.29272E-004	10	..........a	-327.74
	2784	3.48125	2.82771E-001	5.55254E-005	0.00000E+000	2.84000E-001	-6.41772E-004	10	..........a	-327.74
	2816	3.52125	3.14744E-001	5.38544E-005	0.00000E+000	3.16000E-001	-6.29272E-004	10	..........a	-327.74
	2848	3.56125	3.46744E-001	5.23839E-005	0.00000E+000	3.48000E-001	-6.29272E-004	10	..........a	-327.74
	2880	3.60125	3.78678E-001	5.17823E-005	0.00000E+000	3.80000E-001	-6.29272E-004	10	..........a	-327.74
	2912	3.64125	4.10698E-001	4.95766E-005	0.00000E+000	4.12000E-001	-6.54272E-004	10	..........a	-327.74
	2944	3.68125	4.42651E-001	4.83735E-005	0.00000E+000	4.44000E-001	-6.29272E-004	10	..........a	-327.74
	2976	3.72125	4.74671E-001	4.73041E-005	0.00000E+000	4.76000E-001	-6.54272E-004	10	..........a	-327.74
	3000	3.75125	4.98578E-001	4.61010E-005	0.00000E+000	5.00000E-001	-6.29272E-004	10	..........a	-327.74
CURVE2	TABLE
	Pt	T	Vf	Im	Vu	Sig	Ach	IERange	Over	Temp
	#	s	V vs. Ref.	A	V	V	V	#	bits	deg C
	3001	3.7525	4.98658E-001	4.43631E-005	0.00000E+000	5.00000E-001	-6.29272E-004	10	..........a	-327.74