Folder: 2024-09-QuCO2-NCE/data/02-SI/Figures_S9_S11_RDE/18btmapaq-rde

Note: README.txt
This repository contains data and source code to support the scientific article "In Situ Techniques for Aqueous Quinone-Mediated Electrochemical Carbon Capture and Release."
The manuscript for this work has been accepted for publication in Nature Chemical Engineering.

File: 1mkcl-5mmolar18btmapaq-nitrogen-rde-400mvpers-50mvpers.DTA
EXPLAIN
TAG	LSV
TITLE	LABEL	Linear Sweep Voltammetry	Test &Identifier
DATE	LABEL	1/31/2023	Date
TIME	LABEL	15:26:11	Time
NOTES	NOTES	1	&Notes...

PSTAT	PSTAT	REF3000-21108	Potentiostat
VINIT	POTEN	5.00000E-001	F	&Initial E (V)
VFINAL	POTEN	-1.00000E+000	F	&Final E (V)
SCANRATE	QUANT	4.99999E+001	&Scan Rate (mV/s)
STEPSIZE	QUANT	1.00000E-001	St&ep Size (mV)
IMODE	SELECTOR	0	I/E Range &Mode
IRANGE	QUANT	1.00000E+002	&Max Current (mA)
AREA	QUANT	1.00000E+000	Electrode &Area (cm^2)
ELECTRODETYPE	SELECTOR	0	Electrode Type
STRIPPING	TOGGLE	F	Used for Stripping
POLARITY	TOGGLE	F	Signal Polarity
CONDIT	TWOPARAM	F	1.50000E+001	0.00000E+000	Conditionin&g	Time(s)	E(V)
DELAY	TWOPARAM	F	3.00000E+001	0.00000E+000	Init. De&lay	Time(s)	Stab.(mV/s)
EQDELAY	QUANT	0.00000E+000	Equil. &Time (s)
IRCOMP	SELECTOR	0	IRCom&p
PFCOR	QUANT	5.00000E+001	PF Corr. (ohm)
SAMPLINGMODE	SELECTOR	1	Sampling &Mode
EOC	QUANT	0	Open Circuit (V)
PSTATMODEL	IQUANT	5	Pstat Model
PSTATSECTION	LABEL	REF3000-21108	Pstat Section
PSTATSERIALNO	LABEL	21108	Pstat Serial Number
CTRLMODE	IQUANT	1	Control Mode
ELECTROMETER	IQUANT	0	RE=0 or CS=1
IESTAB	IQUANT	2	I/E Stability
CASPEED	IQUANT	4	Control Amp Speed
CONVENTION	IQUANT	1	Current Convention
ICHRANGE	IQUANT	2	Ich Range
ICHRANGEMODE	TOGGLE	F	Ich Auto Range
ICHOFFSETENABLE	TOGGLE	F	Ich Offset Enable
ICHOFFSET	QUANT	0	Ich Offset (V)
ICHFILTER	IQUANT	2	Ich Filter
VCHRANGE	IQUANT	2	Vch Range
VCHRANGEMODE	TOGGLE	T	Vch Auto Range
VCHOFFSETENABLE	TOGGLE	F	Vch Offset Enable
VCHOFFSET	QUANT	0	Vch Offset (V)
VCHFILTER	IQUANT	2	Vch Filter
ACHRANGE	IQUANT	2	Ach Range
ACHOFFSETENABLE	TOGGLE	F	Ach Offset Enable
ACHOFFSET	QUANT	0	Ach Offset (V)
ACHFILTER	IQUANT	0	Ach Filter
IERANGELOWERLIMIT	IQUANT	2	I/E Range Lower Limit
IERANGEMODE	TOGGLE	T	I/E AutoRange
IERANGE	IQUANT	11	I/E Range
POSFEEDENABLE	TOGGLE	F	Positive Feedback IR Comp
POSFEEDRESISTANCE	QUANT	0	Positive Feedback Resistance (ohm)
ACHSELECT	IQUANT	0	Ach Select
SENSECABLEID	IQUANT	14	Sense Cable ID
PWRCABLEID	IQUANT	7	Power Cable ID
DCCALDATE	LABEL	11/9/2022	DC Calibration Date
ACCALDATE	LABEL	11/9/2022	AC Calibration Date
THERMOSELECT	IQUANT	1	Thermo Select
FRAMEWORKVERSION	LABEL	7.8.2	Framework Version
INSTRUMENTVERSION	LABEL	4.40	Instrument Version
COMPLIANCEVOLTAGE	IQUANT	0	Compliance Voltage
CURVE	TABLE	15001
	Pt	T	Vf	Im	Vu	Sig	Ach	IERange	Over	Cycle	Temp
	#	s	V vs. Ref.	A	V	V	V	#	bits	#	deg C
	0	0.002	4.99221E-001	8.39773E-007	0.00000E+000	5.00000E-001	-1.37927E-003	11	..........a	0	-327.74
	158	0.318	4.82464E-001	3.95123E-006	0.00000E+000	4.84200E-001	-1.96261E-003	8	..........a	0	-327.74
	316	0.634	4.66656E-001	2.60300E-006	0.00000E+000	4.68400E-001	-1.75427E-003	8	..........a	0	-327.74
	474	0.95	4.50827E-001	1.95847E-006	0.00000E+000	4.52600E-001	-1.98761E-003	8	..........a	0	-327.74
	632	1.266	4.35047E-001	1.90264E-006	0.00000E+000	4.36800E-001	-1.82094E-003	8	..........a	0	-327.74
	790	1.582	4.19285E-001	1.34060E-006	0.00000E+000	4.21000E-001	-1.87094E-003	8	..........a	0	-327.74
	948	1.898	4.03418E-001	1.28186E-006	0.00000E+000	4.05200E-001	-1.84594E-003	8	..........a	0	-327.74
	1106	2.214	3.87560E-001	8.35643E-007	0.00000E+000	3.89400E-001	-1.86261E-003	8	..........a	0	-327.74
	1264	2.53	3.71927E-001	5.57332E-007	0.00000E+000	3.73600E-001	-1.79594E-003	8	..........a	0	-327.74
	1422	2.846	3.56035E-001	4.11927E-007	0.00000E+000	3.57800E-001	-1.86261E-003	8	..........a	0	-327.74
	1580	3.162	3.40277E-001	2.66522E-007	0.00000E+000	3.42000E-001	-1.90427E-003	8	..........a	0	-327.74
	1738	3.478	3.24452E-001	2.51940E-007	0.00000E+000	3.26200E-001	-2.02094E-003	8	..........a	0	-327.74
	1896	3.794	3.08639E-001	2.34024E-007	0.00000E+000	3.10400E-001	-1.92094E-003	8	..........a	0	-327.74
	2054	4.11	2.92864E-001	-1.76220E-008	0.00000E+000	2.94600E-001	-1.95427E-003	8	..........a	0	-327.74
	2212	4.426	2.77093E-001	2.18609E-007	0.00000E+000	2.78800E-001	-1.89594E-003	8	..........a	0	-327.74
	2370	4.742	2.61306E-001	-2.17883E-008	0.00000E+000	2.63000E-001	-1.62094E-003	8	..........a	0	-327.74
	2528	5.058	2.45560E-001	1.22367E-007	0.00000E+000	2.47200E-001	-1.42927E-003	8	..........a	0	-327.74
	2686	5.374	2.30118E-001	1.81529E-007	0.00000E+000	2.31400E-001	-1.66261E-003	8	..........a	0	-327.74
	2844	5.69	2.14318E-001	4.73728E-008	0.00000E+000	2.15600E-001	-1.52927E-003	8	..........a	0	-327.74
	3002	6.006	1.98503E-001	8.98694E-008	0.00000E+000	1.99800E-001	-1.67094E-003	8	..........a	0	-327.74
	3160	6.322	1.82749E-001	6.48714E-008	0.00000E+000	1.84000E-001	-1.85427E-003	8	..........a	0	-327.74
	3318	6.638	1.66938E-001	6.32048E-008	0.00000E+000	1.68200E-001	-1.98761E-003	8	..........a	0	-327.74
	3476	6.954	1.51152E-001	-6.63681E-008	0.00000E+000	1.52400E-001	-1.92927E-003	8	..........a	0	-327.74
	3634	7.27	1.35350E-001	-4.13701E-008	0.00000E+000	1.36600E-001	-2.17927E-003	8	..........a	0	-327.74
	3792	7.586	1.19571E-001	9.23692E-008	0.00000E+000	1.20800E-001	-1.95427E-003	8	..........a	0	-327.74
	3950	7.902	1.03766E-001	6.48714E-008	0.00000E+000	1.05000E-001	-1.83761E-003	8	..........a	0	-327.74
	4108	8.218	8.79793E-002	-9.80322E-008	0.00000E+000	8.92000E-002	-1.90427E-003	8	..........a	0	-327.74
	4266	8.534	7.21968E-002	-5.40039E-010	0.00000E+000	7.34000E-002	-1.68761E-003	8	..........a	0	-327.74
	4424	8.85	5.64047E-002	-1.03865E-007	0.00000E+000	5.76000E-002	-1.52927E-003	8	..........a	0	-327.74
	4582	9.166	4.06151E-002	-3.01210E-008	0.00000E+000	4.18000E-002	-1.60427E-003	8	..........a	0	-327.74
	4740	9.482	2.48147E-002	6.95936E-009	0.00000E+000	2.60000E-002	-1.55427E-003	8	..........a	0	-327.74
	4898	9.798	9.05447E-003	-1.67610E-007	0.00000E+000	1.02000E-002	-1.63761E-003	8	..........a	0	-327.74
	5056	10.114	-6.73190E-003	-8.01170E-008	0.00000E+000	-5.60001E-003	-1.66261E-003	8	..........a	0	-327.74
	5214	10.43	-2.25154E-002	-7.30342E-008	0.00000E+000	-2.14000E-002	-1.71261E-003	8	..........a	0	-327.74
	5372	10.746	-3.83536E-002	-9.63657E-008	0.00000E+000	-3.72000E-002	-1.64594E-003	8	..........a	0	-327.74
	5530	11.062	-5.41569E-002	-1.95941E-007	0.00000E+000	-5.30000E-002	-1.92094E-003	8	..........a	0	-327.74
	5688	11.378	-6.99578E-002	-2.04690E-007	0.00000E+000	-6.88000E-002	-1.64594E-003	8	..........a	0	-327.74
	5846	11.694	-8.57307E-002	-1.22614E-007	0.00000E+000	-8.46000E-002	-1.81261E-003	8	..........a	0	-327.74
	6004	12.01	-1.01519E-001	-1.57194E-007	0.00000E+000	-1.00400E-001	-1.41261E-003	8	..........a	0	-327.74
	6162	12.326	-1.17311E-001	-1.90941E-007	0.00000E+000	-1.16200E-001	-1.67094E-003	8	..........a	0	-327.74
	6320	12.642	-1.33101E-001	-2.50937E-007	0.00000E+000	-1.32000E-001	-1.62927E-003	8	..........a	0	-327.74
	6478	12.958	-1.48912E-001	-2.70518E-007	0.00000E+000	-1.47800E-001	-1.62094E-003	8	..........a	0	-327.74
	6636	13.274	-1.64699E-001	-3.80093E-007	0.00000E+000	-1.63600E-001	-1.78761E-003	8	..........a	0	-327.74
	6794	13.59	-1.80488E-001	-3.58011E-007	0.00000E+000	-1.79400E-001	-1.85427E-003	8	..........a	0	-327.74
	6952	13.906	-1.96291E-001	-6.27990E-007	0.00000E+000	-1.95200E-001	-1.96261E-003	8	..........a	0	-327.74
	7110	14.222	-2.12084E-001	-6.95068E-007	0.00000E+000	-2.11000E-001	-1.82094E-003	8	..........a	0	-327.74
	7268	14.538	-2.27866E-001	-8.09642E-007	0.00000E+000	-2.26800E-001	-1.97094E-003	8	..........a	0	-327.74
[...]
	9796	19.594	-4.80957E-001	-5.09835E-005	0.00000E+000	-4.79600E-001	-1.76261E-003	8	..........a	0	-327.74
	9954	19.91	-4.96607E-001	-8.52287E-005	0.00000E+000	-4.95400E-001	-1.51261E-003	8	..........a	0	-327.74
	10112	20.226	-5.12403E-001	-1.37201E-004	0.00000E+000	-5.11200E-001	-1.57927E-003	8	..........a	0	-327.74
	10270	20.542	-5.28165E-001	-2.01314E-004	0.00000E+000	-5.27000E-001	-1.97094E-003	8	..........a	0	-327.74
	10428	20.858	-5.43886E-001	-2.53614E-004	0.00000E+000	-5.42800E-001	-1.75427E-003	8	..........a	0	-327.74
	10586	21.174	-5.59862E-001	-2.66125E-004	0.00000E+000	-5.58600E-001	-1.56261E-003	9	..........a	0	-327.74
	10744	21.49	-5.75604E-001	-2.57651E-004	0.00000E+000	-5.74400E-001	-1.44594E-003	9	..........a	0	-327.74
	10902	21.806	-5.91442E-001	-2.51788E-004	0.00000E+000	-5.90200E-001	-1.49594E-003	9	..........a	0	-327.74
	11060	22.122	-6.07262E-001	-2.50242E-004	0.00000E+000	-6.06000E-001	-1.67094E-003	9	..........a	0	-327.74
	11218	22.438	-6.23042E-001	-2.50020E-004	0.00000E+000	-6.21800E-001	-1.72094E-003	9	..........a	0	-327.74
	11376	22.754	-6.38846E-001	-2.49256E-004	0.00000E+000	-6.37600E-001	-1.71261E-003	9	..........a	0	-327.74
	11534	23.07	-6.54579E-001	-2.48913E-004	0.00000E+000	-6.53400E-001	-1.70427E-003	9	..........a	0	-327.74
	11692	23.386	-6.70442E-001	-2.48992E-004	0.00000E+000	-6.69200E-001	-1.87927E-003	9	..........a	0	-327.74
	11850	23.702	-6.86287E-001	-2.49243E-004	0.00000E+000	-6.85000E-001	-2.02927E-003	9	..........a	0	-327.74
	12008	24.018	-7.02087E-001	-2.48161E-004	0.00000E+000	-7.00800E-001	-2.02927E-003	9	..........a	0	-327.74
	12166	24.334	-7.17921E-001	-2.48169E-004	0.00000E+000	-7.16600E-001	-2.05427E-003	9	..........a	0	-327.74
	12324	24.65	-7.33654E-001	-2.47576E-004	0.00000E+000	-7.32400E-001	-2.03761E-003	9	..........a	0	-327.74
	12482	24.966	-7.49321E-001	-2.47133E-004	0.00000E+000	-7.48200E-001	-1.59594E-003	9	..........a	0	-327.74
	12640	25.282	-7.65179E-001	-2.48090E-004	0.00000E+000	-7.64000E-001	-1.61261E-003	9	..........a	0	-327.74
	12798	25.598	-7.81017E-001	-2.48144E-004	0.00000E+000	-7.79800E-001	-1.94594E-003	9	..........a	0	-327.74
	12956	25.914	-7.96812E-001	-2.47818E-004	0.00000E+000	-7.95600E-001	-1.64594E-003	9	..........a	0	-327.74
	13114	26.23	-8.12612E-001	-2.47797E-004	0.00000E+000	-8.11400E-001	-1.65427E-003	9	..........a	0	-327.74
	13272	26.546	-8.28404E-001	-2.48019E-004	0.00000E+000	-8.27200E-001	-1.80427E-003	9	..........a	0	-327.74
	13430	26.862	-8.44162E-001	-2.47196E-004	0.00000E+000	-8.43000E-001	-1.85427E-003	9	..........a	0	-327.74
	13588	27.178	-8.59908E-001	-2.47413E-004	0.00000E+000	-8.58800E-001	-1.65427E-003	9	..........a	0	-327.74
	13746	27.494	-8.75675E-001	-2.47726E-004	0.00000E+000	-8.74600E-001	-1.86261E-003	9	..........a	0	-327.74
	13904	27.81	-8.91496E-001	-2.47935E-004	0.00000E+000	-8.90400E-001	-1.69594E-003	9	..........a	0	-327.74
	14062	28.126	-9.07329E-001	-2.48303E-004	0.00000E+000	-9.06200E-001	-1.46261E-003	9	..........a	0	-327.74
	14220	28.442	-9.23100E-001	-2.47822E-004	0.00000E+000	-9.22000E-001	-1.52927E-003	9	..........a	0	-327.74
	14378	28.758	-9.38887E-001	-2.47304E-004	0.00000E+000	-9.37800E-001	-1.64594E-003	9	..........a	0	-327.74
	14536	29.074	-9.54646E-001	-2.47053E-004	0.00000E+000	-9.53600E-001	-1.73761E-003	9	..........a	0	-327.74
	14694	29.39	-9.70558E-001	-2.47033E-004	0.00000E+000	-9.69400E-001	-1.85427E-003	9	..........a	0	-327.74
	14852	29.706	-9.86275E-001	-2.48474E-004	0.00000E+000	-9.85200E-001	-1.92094E-003	9	..........a	0	-327.74
	15000	30.002	-1.00114E+000	-2.48274E-004	0.00000E+000	-1.00000E+000	-2.21261E-003	9	..........a	0	-327.74

File: 1mkcl-5mmolar18btmapaq-nitrogen-rde-600mvpers-50mvpers.DTA
EXPLAIN
TAG	LSV
TITLE	LABEL	Linear Sweep Voltammetry	Test &Identifier
DATE	LABEL	1/31/2023	Date
TIME	LABEL	15:27:42	Time
NOTES	NOTES	1	&Notes...

PSTAT	PSTAT	REF3000-21108	Potentiostat
VINIT	POTEN	5.00000E-001	F	&Initial E (V)
VFINAL	POTEN	-1.00000E+000	F	&Final E (V)
SCANRATE	QUANT	4.99999E+001	&Scan Rate (mV/s)
STEPSIZE	QUANT	1.00000E-001	St&ep Size (mV)
IMODE	SELECTOR	0	I/E Range &Mode
IRANGE	QUANT	1.00000E+002	&Max Current (mA)
AREA	QUANT	1.00000E+000	Electrode &Area (cm^2)
ELECTRODETYPE	SELECTOR	0	Electrode Type
STRIPPING	TOGGLE	F	Used for Stripping
POLARITY	TOGGLE	F	Signal Polarity
CONDIT	TWOPARAM	F	1.50000E+001	0.00000E+000	Conditionin&g	Time(s)	E(V)
DELAY	TWOPARAM	F	3.00000E+001	0.00000E+000	Init. De&lay	Time(s)	Stab.(mV/s)
EQDELAY	QUANT	0.00000E+000	Equil. &Time (s)
IRCOMP	SELECTOR	0	IRCom&p
PFCOR	QUANT	5.00000E+001	PF Corr. (ohm)
SAMPLINGMODE	SELECTOR	1	Sampling &Mode
EOC	QUANT	0	Open Circuit (V)
PSTATMODEL	IQUANT	5	Pstat Model
PSTATSECTION	LABEL	REF3000-21108	Pstat Section
PSTATSERIALNO	LABEL	21108	Pstat Serial Number
CTRLMODE	IQUANT	1	Control Mode
ELECTROMETER	IQUANT	0	RE=0 or CS=1
IESTAB	IQUANT	2	I/E Stability
CASPEED	IQUANT	4	Control Amp Speed
CONVENTION	IQUANT	1	Current Convention
ICHRANGE	IQUANT	2	Ich Range
ICHRANGEMODE	TOGGLE	F	Ich Auto Range
ICHOFFSETENABLE	TOGGLE	F	Ich Offset Enable
ICHOFFSET	QUANT	0	Ich Offset (V)
ICHFILTER	IQUANT	2	Ich Filter
VCHRANGE	IQUANT	2	Vch Range
VCHRANGEMODE	TOGGLE	T	Vch Auto Range
VCHOFFSETENABLE	TOGGLE	F	Vch Offset Enable
VCHOFFSET	QUANT	0	Vch Offset (V)
VCHFILTER	IQUANT	2	Vch Filter
ACHRANGE	IQUANT	2	Ach Range
ACHOFFSETENABLE	TOGGLE	F	Ach Offset Enable
ACHOFFSET	QUANT	0	Ach Offset (V)
ACHFILTER	IQUANT	0	Ach Filter
IERANGELOWERLIMIT	IQUANT	2	I/E Range Lower Limit
IERANGEMODE	TOGGLE	T	I/E AutoRange
IERANGE	IQUANT	11	I/E Range
POSFEEDENABLE	TOGGLE	F	Positive Feedback IR Comp
POSFEEDRESISTANCE	QUANT	0	Positive Feedback Resistance (ohm)
ACHSELECT	IQUANT	0	Ach Select
SENSECABLEID	IQUANT	14	Sense Cable ID
PWRCABLEID	IQUANT	7	Power Cable ID
DCCALDATE	LABEL	11/9/2022	DC Calibration Date
ACCALDATE	LABEL	11/9/2022	AC Calibration Date
THERMOSELECT	IQUANT	1	Thermo Select
FRAMEWORKVERSION	LABEL	7.8.2	Framework Version
INSTRUMENTVERSION	LABEL	4.40	Instrument Version
COMPLIANCEVOLTAGE	IQUANT	0	Compliance Voltage
CURVE	TABLE	15001
	Pt	T	Vf	Im	Vu	Sig	Ach	IERange	Over	Cycle	Temp
	#	s	V vs. Ref.	A	V	V	V	#	bits	#	deg C
	0	0.002	4.99633E-001	-3.79654E-005	0.00000E+000	5.00000E-001	-8.70939E-004	11	..........a	0	-327.74
	158	0.318	4.82927E-001	3.67083E-006	0.00000E+000	4.84200E-001	-8.45939E-004	8	..........a	0	-327.74
	316	0.634	4.67168E-001	2.63467E-006	0.00000E+000	4.68400E-001	-8.79272E-004	8	..........a	0	-327.74
	474	0.95	4.51297E-001	2.09471E-006	0.00000E+000	4.52600E-001	-8.62605E-004	8	..........a	0	-327.74
	632	1.266	4.35518E-001	1.65016E-006	0.00000E+000	4.36800E-001	-8.29272E-004	8	..........a	0	-327.74
	790	1.582	4.19768E-001	1.56058E-006	0.00000E+000	4.21000E-001	-8.70939E-004	8	..........a	0	-327.74
	948	1.898	4.03927E-001	1.22894E-006	0.00000E+000	4.05200E-001	-8.37606E-004	8	..........a	0	-327.74
	1106	2.214	3.88210E-001	9.14386E-007	0.00000E+000	3.89400E-001	-8.54272E-004	8	..........a	0	-327.74
	1264	2.53	3.72360E-001	6.23993E-007	0.00000E+000	3.73600E-001	-8.54272E-004	8	..........a	0	-327.74
	1422	2.846	3.56568E-001	5.96079E-007	0.00000E+000	3.57800E-001	-8.20939E-004	8	..........a	0	-327.74
	1580	3.162	3.40810E-001	3.71930E-007	0.00000E+000	3.42000E-001	-8.20939E-004	8	..........a	0	-327.74
	1738	3.478	3.24935E-001	1.25700E-007	0.00000E+000	3.26200E-001	-8.04272E-004	8	..........a	0	-327.74
	1896	3.794	3.09197E-001	4.11233E-008	0.00000E+000	3.10400E-001	-8.12605E-004	8	..........a	0	-327.74
	2054	4.11	2.93422E-001	-2.51214E-008	0.00000E+000	2.94600E-001	-8.20939E-004	8	..........a	0	-327.74
	2212	4.426	2.77635E-001	8.48698E-008	0.00000E+000	2.78800E-001	-8.62605E-004	8	..........a	0	-327.74
	2370	4.742	2.61818E-001	1.21117E-007	0.00000E+000	2.63000E-001	-8.29272E-004	8	..........a	0	-327.74
	2528	5.058	2.46060E-001	-1.55388E-008	0.00000E+000	2.47200E-001	-8.45939E-004	8	..........a	0	-327.74
	2686	5.374	2.30161E-001	7.98702E-008	0.00000E+000	2.31400E-001	-8.20939E-004	8	..........a	0	-327.74
	2844	5.69	2.14362E-001	4.23732E-008	0.00000E+000	2.15600E-001	-8.04272E-004	8	..........a	0	-327.74
	3002	6.006	1.98585E-001	-5.51190E-008	0.00000E+000	1.99800E-001	-8.29272E-004	8	..........a	0	-327.74
	3160	6.322	1.82783E-001	-1.15114E-007	0.00000E+000	1.84000E-001	-8.12605E-004	8	..........a	0	-327.74
	3318	6.638	1.66995E-001	-1.28446E-007	0.00000E+000	1.68200E-001	-7.87605E-004	8	..........a	0	-327.74
	3476	6.954	1.51195E-001	1.73752E-008	0.00000E+000	1.52400E-001	-8.54272E-004	8	..........a	0	-327.74
	3634	7.27	1.35410E-001	-1.25113E-007	0.00000E+000	1.36600E-001	-8.70939E-004	8	..........a	0	-327.74
	3792	7.586	1.19617E-001	-1.98024E-007	0.00000E+000	1.20800E-001	-8.20939E-004	8	..........a	0	-327.74
	3950	7.902	1.03825E-001	-1.39279E-007	0.00000E+000	1.05000E-001	-8.12605E-004	8	..........a	0	-327.74
	4108	8.218	8.80368E-002	-1.63860E-007	0.00000E+000	8.92000E-002	-8.29272E-004	8	..........a	0	-327.74
	4266	8.534	7.22481E-002	-7.72005E-008	0.00000E+000	7.34000E-002	-8.45939E-004	8	..........a	0	-327.74
	4424	8.85	5.64422E-002	-2.47187E-007	0.00000E+000	5.76000E-002	-8.12605E-004	8	..........a	0	-327.74
	4582	9.166	4.06639E-002	-1.32196E-007	0.00000E+000	4.18000E-002	-8.70939E-004	8	..........a	0	-327.74
	4740	9.482	2.48643E-002	-2.54686E-007	0.00000E+000	2.60000E-002	-7.70939E-004	8	..........a	0	-327.74
	4898	9.798	9.06722E-003	-2.35521E-007	0.00000E+000	1.02000E-002	-8.04272E-004	8	..........a	0	-327.74
	5056	10.114	-6.72757E-003	-2.55520E-007	0.00000E+000	-5.60001E-003	-8.70939E-004	8	..........a	0	-327.74
	5214	10.43	-2.25221E-002	-2.43854E-007	0.00000E+000	-2.14000E-002	-8.37606E-004	8	..........a	0	-327.74
	5372	10.746	-3.83232E-002	-2.46770E-007	0.00000E+000	-3.72000E-002	-7.79272E-004	8	..........a	0	-327.74
	5530	11.062	-5.41103E-002	-2.98849E-007	0.00000E+000	-5.30000E-002	-8.04272E-004	8	..........a	0	-327.74
	5688	11.378	-6.99003E-002	-1.77193E-007	0.00000E+000	-6.88000E-002	-8.87605E-004	8	..........a	0	-327.74
	5846	11.694	-8.56819E-002	-2.86767E-007	0.00000E+000	-8.46000E-002	-7.87605E-004	8	..........a	0	-327.74
	6004	12.01	-1.01465E-001	-3.53428E-007	0.00000E+000	-1.00400E-001	-8.45939E-004	8	..........a	0	-327.74
	6162	12.326	-1.17264E-001	-1.72610E-007	0.00000E+000	-1.16200E-001	-8.87605E-004	8	..........a	0	-327.74
	6320	12.642	-1.33057E-001	-4.27589E-007	0.00000E+000	-1.32000E-001	-8.37606E-004	8	..........a	0	-327.74
	6478	12.958	-1.48843E-001	-3.83009E-007	0.00000E+000	-1.47800E-001	-8.04272E-004	8	..........a	0	-327.74
	6636	13.274	-1.64643E-001	-3.64261E-007	0.00000E+000	-1.63600E-001	-8.62605E-004	8	..........a	0	-327.74
	6794	13.59	-1.80431E-001	-4.67586E-007	0.00000E+000	-1.79400E-001	-8.12605E-004	8	..........a	0	-327.74
	6952	13.906	-1.96233E-001	-6.15907E-007	0.00000E+000	-1.95200E-001	-7.87605E-004	8	..........a	0	-327.74
	7110	14.222	-2.12022E-001	-7.22982E-007	0.00000E+000	-2.11000E-001	-8.54272E-004	8	..........a	0	-327.74
	7268	14.538	-2.27815E-001	-8.88385E-007	0.00000E+000	-2.26800E-001	-8.04272E-004	8	..........a	0	-327.74
[...]
	9796	19.594	-4.80440E-001	-5.58723E-005	0.00000E+000	-4.79600E-001	-8.29272E-004	8	..........a	0	-327.74
	9954	19.91	-4.96203E-001	-9.35397E-005	0.00000E+000	-4.95400E-001	-8.70939E-004	8	..........a	0	-327.74
	10112	20.226	-5.11944E-001	-1.49970E-004	0.00000E+000	-5.11200E-001	-8.70939E-004	8	..........a	0	-327.74
	10270	20.542	-5.27603E-001	-2.21453E-004	0.00000E+000	-5.27000E-001	-8.70939E-004	8	..........a	0	-327.74
	10428	20.858	-5.43554E-001	-2.81607E-004	0.00000E+000	-5.42800E-001	-8.20939E-004	9	..........a	0	-327.74
	10586	21.174	-5.59437E-001	-3.04297E-004	0.00000E+000	-5.58600E-001	-8.20939E-004	9	..........a	0	-327.74
	10744	21.49	-5.75296E-001	-3.05948E-004	0.00000E+000	-5.74400E-001	-8.20939E-004	9	..........a	0	-327.74
	10902	21.806	-5.90921E-001	-3.05994E-004	0.00000E+000	-5.90200E-001	-8.12605E-004	9	..........a	0	-327.74
	11060	22.122	-6.06754E-001	-3.06725E-004	0.00000E+000	-6.06000E-001	-8.37606E-004	9	..........a	0	-327.74
	11218	22.438	-6.22550E-001	-3.05233E-004	0.00000E+000	-6.21800E-001	-7.95939E-004	9	..........a	0	-327.74
	11376	22.754	-6.38350E-001	-3.04067E-004	0.00000E+000	-6.37600E-001	-8.20939E-004	9	..........a	0	-327.74
	11534	23.07	-6.54112E-001	-3.03917E-004	0.00000E+000	-6.53400E-001	-9.04272E-004	9	..........a	0	-327.74
	11692	23.386	-6.69917E-001	-3.02709E-004	0.00000E+000	-6.69200E-001	-8.70939E-004	9	..........a	0	-327.74
	11850	23.702	-6.85733E-001	-3.02300E-004	0.00000E+000	-6.85000E-001	-8.70939E-004	9	..........a	0	-327.74
	12008	24.018	-7.01462E-001	-3.03286E-004	0.00000E+000	-7.00800E-001	-8.12605E-004	9	..........a	0	-327.74
	12166	24.334	-7.17254E-001	-3.03587E-004	0.00000E+000	-7.16600E-001	-7.87605E-004	9	..........a	0	-327.74
	12324	24.65	-7.33104E-001	-3.01673E-004	0.00000E+000	-7.32400E-001	-7.95939E-004	9	..........a	0	-327.74
	12482	24.966	-7.48912E-001	-3.03629E-004	0.00000E+000	-7.48200E-001	-8.20939E-004	9	..........a	0	-327.74
	12640	25.282	-7.64692E-001	-3.03085E-004	0.00000E+000	-7.64000E-001	-8.87605E-004	9	..........a	0	-327.74
	12798	25.598	-7.80500E-001	-3.02889E-004	0.00000E+000	-7.79800E-001	-7.87605E-004	9	..........a	0	-327.74
	12956	25.914	-7.96267E-001	-3.04138E-004	0.00000E+000	-7.95600E-001	-8.45939E-004	9	..........a	0	-327.74
	13114	26.23	-8.12096E-001	-3.03787E-004	0.00000E+000	-8.11400E-001	-8.12605E-004	9	..........a	0	-327.74
	13272	26.546	-8.27775E-001	-3.03215E-004	0.00000E+000	-8.27200E-001	-8.54272E-004	9	..........a	0	-327.74
	13430	26.862	-8.43562E-001	-3.04356E-004	0.00000E+000	-8.43000E-001	-8.12605E-004	9	..........a	0	-327.74
	13588	27.178	-8.59387E-001	-3.03382E-004	0.00000E+000	-8.58800E-001	-8.37606E-004	9	..........a	0	-327.74
	13746	27.494	-8.75242E-001	-3.02141E-004	0.00000E+000	-8.74600E-001	-8.12605E-004	9	..........a	0	-327.74
	13904	27.81	-8.91058E-001	-3.04155E-004	0.00000E+000	-8.90400E-001	-8.62605E-004	9	..........a	0	-327.74
	14062	28.126	-9.06762E-001	-3.04811E-004	0.00000E+000	-9.06200E-001	-8.37606E-004	9	..........a	0	-327.74
	14220	28.442	-9.22604E-001	-3.03654E-004	0.00000E+000	-9.22000E-001	-8.29272E-004	9	..........a	0	-327.74
	14378	28.758	-9.38383E-001	-3.03499E-004	0.00000E+000	-9.37800E-001	-8.45939E-004	9	..........a	0	-327.74
	14536	29.074	-9.54167E-001	-3.03445E-004	0.00000E+000	-9.53600E-001	-8.70939E-004	9	..........a	0	-327.74
	14694	29.39	-9.69950E-001	-3.03904E-004	0.00000E+000	-9.69400E-001	-8.54272E-004	9	..........a	0	-327.74
	14852	29.706	-9.85804E-001	-3.01485E-004	0.00000E+000	-9.85200E-001	-8.45939E-004	9	..........a	0	-327.74
	15000	30.002	-1.00054E+000	-3.00269E-004	0.00000E+000	-1.00000E+000	-8.37606E-004	9	..........a	0	-327.74