Folder: 2024-09-QuCO2-NCE/data/02-SI/Figures_S9_S11_RDE/18btmapaq-rde (part 11)

File: 1mkcl-18btmapaq-nitrogen-6000mvpers.DTA
EXPLAIN
TAG	CV
TITLE	LABEL	Cyclic Voltammetry	Test &Identifier
DATE	LABEL	1/31/2023	Date
TIME	LABEL	15:23:25	Time
NOTES	NOTES	1	&Notes...

PSTAT	PSTAT	REF3000-21108	Potentiostat
VINIT	POTEN	5.00000E-001	F	Initial &E (V)
VLIMIT1	POTEN	-1.00000E+000	F	Scan Limit &1 (V)
VLIMIT2	POTEN	5.00000E-001	F	Scan Limit &2 (V)
VFINAL	POTEN	5.00000E-001	F	Final &E (V)
SCANRATE	QUANT	5.99999E+003	&Scan Rate (mV/s)
STEPSIZE	QUANT	1.00000E+000	St&ep Size (mV)
CYCLES	IQUANT	1	C&ycles (#)
IMODE	SELECTOR	1	I/E Range &Mode
IRANGE	QUANT	1.00000E+001	&Max Current (mA)
AREA	QUANT	1.00000E+000	Electrode &Area (cm^2)
ELECTRODETYPE	SELECTOR	0	Electrode Type
STRIPPING	TOGGLE	F	Used for Stripping
POLARITY	TOGGLE	F	Signal Polarity
CONDIT	TWOPARAM	F	1.50000E+001	0.00000E+000	Conditionin&g	Time(s)	E(V)
DELAY	TWOPARAM	F	5.00000E+000	0.00000E+000	Init. De&lay	Time(s)	Stab.(mV/s)
EQDELAY	QUANT	0.00000E+000	Equil. &Time (s)
IRCOMP	SELECTOR	0	IRCom&p
PFCOR	QUANT	5.00000E+001	PF Corr. (ohm)
SAMPLINGMODE	SELECTOR	1	Sampling &Mode
EOC	QUANT	0	Open Circuit (V)
PSTATMODEL	IQUANT	5	Pstat Model
PSTATSECTION	LABEL	REF3000-21108	Pstat Section
PSTATSERIALNO	LABEL	21108	Pstat Serial Number
CTRLMODE	IQUANT	1	Control Mode
ELECTROMETER	IQUANT	0	RE=0 or CS=1
IESTAB	IQUANT	2	I/E Stability
CASPEED	IQUANT	4	Control Amp Speed
CONVENTION	IQUANT	1	Current Convention
ICHRANGE	IQUANT	2	Ich Range
ICHRANGEMODE	TOGGLE	F	Ich Auto Range
ICHOFFSETENABLE	TOGGLE	F	Ich Offset Enable
ICHOFFSET	QUANT	0	Ich Offset (V)
ICHFILTER	IQUANT	1	Ich Filter
VCHRANGE	IQUANT	2	Vch Range
VCHRANGEMODE	TOGGLE	F	Vch Auto Range
VCHOFFSETENABLE	TOGGLE	F	Vch Offset Enable
VCHOFFSET	QUANT	0	Vch Offset (V)
VCHFILTER	IQUANT	1	Vch Filter
ACHRANGE	IQUANT	2	Ach Range
ACHOFFSETENABLE	TOGGLE	F	Ach Offset Enable
ACHOFFSET	QUANT	0	Ach Offset (V)
ACHFILTER	IQUANT	0	Ach Filter
IERANGELOWERLIMIT	IQUANT	2	I/E Range Lower Limit
IERANGEMODE	TOGGLE	F	I/E AutoRange
IERANGE	IQUANT	10	I/E Range
POSFEEDENABLE	TOGGLE	F	Positive Feedback IR Comp
POSFEEDRESISTANCE	QUANT	0	Positive Feedback Resistance (ohm)
ACHSELECT	IQUANT	0	Ach Select
SENSECABLEID	IQUANT	14	Sense Cable ID
PWRCABLEID	IQUANT	7	Power Cable ID
DCCALDATE	LABEL	11/9/2022	DC Calibration Date
ACCALDATE	LABEL	11/9/2022	AC Calibration Date
THERMOSELECT	IQUANT	1	Thermo Select
FRAMEWORKVERSION	LABEL	7.8.2	Framework Version
INSTRUMENTVERSION	LABEL	4.40	Instrument Version
COMPLIANCEVOLTAGE	IQUANT	0	Compliance Voltage
CURVE1	TABLE
	Pt	T	Vf	Im	Vu	Sig	Ach	IERange	Over	Temp
	#	s	V vs. Ref.	A	V	V	V	#	bits	deg C
	0	0.000167	4.98791E-001	1.60900E-005	0.00000E+000	5.00000E-001	-6.29272E-004	10	..........a	-327.74
	32	0.0055	4.66491E-001	-2.70215E-005	0.00000E+000	4.68000E-001	-8.29272E-004	10	..........a	-327.74
	64	0.010833	4.34541E-001	-3.50423E-005	0.00000E+000	4.36000E-001	-7.29272E-004	10	..........a	-327.74
	96	0.016167	4.02691E-001	-4.30630E-005	0.00000E+000	4.04000E-001	-7.29272E-004	10	..........a	-327.74
	128	0.0215	3.70741E-001	-5.15851E-005	0.00000E+000	3.72000E-001	-9.29272E-004	10	..........a	-327.74
	160	0.026833	3.38791E-001	-5.05825E-005	0.00000E+000	3.40000E-001	-9.29272E-004	10	..........a	-327.74
	192	0.032167	3.06791E-001	-5.55955E-005	0.00000E+000	3.08000E-001	-8.29272E-004	10	..........a	-327.74
	224	0.0375	2.74691E-001	-5.50942E-005	0.00000E+000	2.76000E-001	-9.29272E-004	10	..........a	-327.74
	256	0.042833	2.42741E-001	-6.01071E-005	0.00000E+000	2.44000E-001	-9.29272E-004	10	..........a	-327.74
	288	0.048167	2.10741E-001	-5.96059E-005	0.00000E+000	2.12000E-001	-7.29272E-004	10	..........a	-327.74
	320	0.0535	1.78791E-001	-5.91046E-005	0.00000E+000	1.80000E-001	-9.29272E-004	10	..........a	-327.74
	352	0.058833	1.46841E-001	-6.26136E-005	0.00000E+000	1.48000E-001	-9.29272E-004	10	..........a	-327.74
	384	0.064167	1.14791E-001	-6.31149E-005	0.00000E+000	1.16000E-001	-9.29272E-004	10	..........a	-327.74
	416	0.0695	8.26910E-002	-6.31149E-005	0.00000E+000	8.40000E-002	-7.29272E-004	10	..........a	-327.74
	448	0.074833	5.07910E-002	-6.51201E-005	0.00000E+000	5.20000E-002	-8.29272E-004	10	..........a	-327.74
	480	0.080167	1.88410E-002	-6.46188E-005	0.00000E+000	2.00000E-002	-7.29272E-004	10	..........a	-327.74
	512	0.0855	-1.31590E-002	-6.56214E-005	0.00000E+000	-1.20000E-002	-9.29272E-004	10	..........a	-327.74
	544	0.090833	-4.51590E-002	-6.61227E-005	0.00000E+000	-4.40000E-002	-9.29272E-004	10	..........a	-327.74
	576	0.096167	-7.69090E-002	-6.41175E-005	0.00000E+000	-7.60000E-002	-9.29272E-004	10	..........a	-327.74
	608	0.1015	-1.09209E-001	-6.51201E-005	0.00000E+000	-1.08000E-001	-9.29272E-004	10	..........a	-327.74
	640	0.106833	-1.41109E-001	-6.61227E-005	0.00000E+000	-1.40000E-001	-9.29272E-004	10	..........a	-327.74
	672	0.112167	-1.73109E-001	-6.81279E-005	0.00000E+000	-1.72000E-001	-9.29272E-004	10	..........a	-327.74
	704	0.1175	-2.05009E-001	-6.91305E-005	0.00000E+000	-2.04000E-001	-9.29272E-004	10	..........a	-327.74
	736	0.122833	-2.37109E-001	-7.11357E-005	0.00000E+000	-2.36000E-001	-7.29272E-004	10	..........a	-327.74
	768	0.128167	-2.68959E-001	-7.51461E-005	0.00000E+000	-2.68000E-001	-7.29272E-004	10	..........a	-327.74
	800	0.1335	-3.01009E-001	-8.11616E-005	0.00000E+000	-3.00000E-001	-7.29272E-004	10	..........a	-327.74
	832	0.138833	-3.32909E-001	-8.71772E-005	0.00000E+000	-3.32000E-001	-9.29272E-004	10	..........a	-327.74
	864	0.144167	-3.65009E-001	-9.82057E-005	0.00000E+000	-3.64000E-001	-7.29272E-004	10	..........a	-327.74
	896	0.1495	-3.97209E-001	-1.20263E-004	0.00000E+000	-3.96000E-001	-7.29272E-004	10	..........a	-327.74
	928	0.154833	-4.29109E-001	-1.75907E-004	0.00000E+000	-4.28000E-001	-9.29272E-004	10	..........a	-327.74
	960	0.160167	-4.61059E-001	-3.09753E-004	0.00000E+000	-4.60000E-001	-9.29272E-004	10	..........a	-327.74
	992	0.1655	-4.93159E-001	-5.99503E-004	0.00000E+000	-4.92000E-001	-6.29272E-004	10	..........a	-327.74
	1024	0.170833	-5.24959E-001	-1.08376E-003	0.00000E+000	-5.24000E-001	-7.29272E-004	10	..........a	-327.74
	1056	0.176167	-5.56859E-001	-1.63067E-003	0.00000E+000	-5.56000E-001	-7.29272E-004	10	..........a	-327.74
	1088	0.1815	-5.88809E-001	-2.05828E-003	0.00000E+000	-5.88000E-001	-9.29272E-004	10	..........a	-327.74
	1120	0.186833	-6.21109E-001	-2.11693E-003	0.00000E+000	-6.20000E-001	-9.29272E-004	10	..........a	-327.74
	1152	0.192167	-6.52859E-001	-1.77905E-003	0.00000E+000	-6.52000E-001	-9.29272E-004	10	..........a	-327.74
	1184	0.1975	-6.84909E-001	-1.53994E-003	0.00000E+000	-6.84000E-001	-9.29272E-004	10	..........a	-327.74
	1216	0.202833	-7.17059E-001	-1.37902E-003	0.00000E+000	-7.16000E-001	-9.29272E-004	10	..........a	-327.74
	1248	0.208167	-7.48809E-001	-1.25019E-003	0.00000E+000	-7.48000E-001	-9.29272E-004	10	..........a	-327.74
	1280	0.2135	-7.80959E-001	-1.15143E-003	0.00000E+000	-7.80000E-001	-1.02927E-003	10	..........a	-327.74
	1312	0.218833	-8.12859E-001	-1.07022E-003	0.00000E+000	-8.12000E-001	-9.29272E-004	10	..........a	-327.74
	1344	0.224167	-8.44709E-001	-1.00255E-003	0.00000E+000	-8.44000E-001	-9.29272E-004	10	..........a	-327.74
	1376	0.2295	-8.76759E-001	-9.39883E-004	0.00000E+000	-8.76000E-001	-8.29272E-004	10	..........a	-327.74
	1408	0.234833	-9.08759E-001	-8.87247E-004	0.00000E+000	-9.08000E-001	-9.29272E-004	10	..........a	-327.74
	1440	0.240167	-9.40759E-001	-8.45640E-004	0.00000E+000	-9.40000E-001	-8.29272E-004	10	..........a	-327.74
[...]
	1984	0.330833	-5.17009E-001	9.43991E-004	0.00000E+000	-5.16000E-001	-8.29272E-004	10	..........a	-327.74
	2016	0.336167	-4.84909E-001	1.52951E-003	0.00000E+000	-4.84000E-001	-8.29272E-004	10	..........a	-327.74
	2048	0.3415	-4.53059E-001	1.52349E-003	0.00000E+000	-4.52000E-001	-9.29272E-004	10	..........a	-327.74
	2080	0.346833	-4.20909E-001	1.18812E-003	0.00000E+000	-4.20000E-001	-1.02927E-003	10	..........a	-327.74
	2112	0.352167	-3.89159E-001	9.42487E-004	0.00000E+000	-3.88000E-001	-9.29272E-004	10	..........a	-327.74
	2144	0.3575	-3.57109E-001	7.90093E-004	0.00000E+000	-3.56000E-001	-8.29272E-004	10	..........a	-327.74
	2176	0.362833	-3.25009E-001	6.88329E-004	0.00000E+000	-3.24000E-001	-9.29272E-004	10	..........a	-327.74
	2208	0.368167	-2.93209E-001	6.17646E-004	0.00000E+000	-2.92000E-001	-8.29272E-004	10	..........a	-327.74
	2240	0.3735	-2.61209E-001	5.65010E-004	0.00000E+000	-2.60000E-001	-9.29272E-004	10	..........a	-327.74
	2272	0.378833	-2.28909E-001	5.25408E-004	0.00000E+000	-2.28000E-001	-9.29272E-004	10	..........a	-327.74
	2304	0.384167	-1.97159E-001	4.85304E-004	0.00000E+000	-1.96000E-001	-8.29272E-004	10	..........a	-327.74
	2336	0.3895	-1.65109E-001	4.56730E-004	0.00000E+000	-1.64000E-001	-8.29272E-004	10	..........a	-327.74
	2368	0.394833	-1.33109E-001	4.30161E-004	0.00000E+000	-1.32000E-001	-9.29272E-004	10	..........a	-327.74
	2400	0.400167	-1.01109E-001	4.11112E-004	0.00000E+000	-1.00000E-001	-1.02927E-003	10	..........a	-327.74
	2432	0.4055	-6.91090E-002	3.88554E-004	0.00000E+000	-6.80000E-002	-8.29272E-004	10	..........a	-327.74
	2464	0.410833	-3.72090E-002	3.71008E-004	0.00000E+000	-3.60000E-002	-8.29272E-004	10	..........a	-327.74
	2496	0.416167	-5.20900E-003	3.55969E-004	0.00000E+000	-4.00001E-003	-1.02927E-003	10	..........a	-327.74
	2528	0.4215	2.68410E-002	3.43437E-004	0.00000E+000	2.80000E-002	-7.29272E-004	10	..........a	-327.74
	2560	0.426833	5.87910E-002	3.29401E-004	0.00000E+000	6.00000E-002	-8.29272E-004	10	..........a	-327.74
	2592	0.432167	9.07410E-002	3.18873E-004	0.00000E+000	9.20000E-002	-9.29272E-004	10	..........a	-327.74
	2624	0.4375	1.22891E-001	3.09850E-004	0.00000E+000	1.24000E-001	-6.29272E-004	10	..........a	-327.74
	2656	0.442833	1.54691E-001	2.95814E-004	0.00000E+000	1.56000E-001	-9.29272E-004	10	..........a	-327.74
	2688	0.448167	1.86741E-001	2.85286E-004	0.00000E+000	1.88000E-001	-8.29272E-004	10	..........a	-327.74
	2720	0.4535	2.18791E-001	2.74759E-004	0.00000E+000	2.20000E-001	-9.29272E-004	10	..........a	-327.74
	2752	0.458833	2.50691E-001	2.61726E-004	0.00000E+000	2.52000E-001	-8.29272E-004	10	..........a	-327.74
	2784	0.464167	2.82791E-001	2.51700E-004	0.00000E+000	2.84000E-001	-9.29272E-004	10	..........a	-327.74
	2816	0.4695	3.14741E-001	2.48191E-004	0.00000E+000	3.16000E-001	-1.02927E-003	10	..........a	-327.74
	2848	0.474833	3.46691E-001	2.42676E-004	0.00000E+000	3.48000E-001	-9.29272E-004	10	..........a	-327.74
	2880	0.480167	3.78591E-001	2.33653E-004	0.00000E+000	3.80000E-001	-9.29272E-004	10	..........a	-327.74
	2912	0.4855	4.10691E-001	2.30144E-004	0.00000E+000	4.12000E-001	-8.29272E-004	10	..........a	-327.74
	2944	0.490833	4.42691E-001	2.17110E-004	0.00000E+000	4.44000E-001	-9.29272E-004	10	..........a	-327.74
	2976	0.496167	4.74791E-001	2.16609E-004	0.00000E+000	4.76000E-001	-9.29272E-004	10	..........a	-327.74
	3000	0.500167	4.98691E-001	2.14102E-004	0.00000E+000	5.00000E-001	-9.29272E-004	10	..........a	-327.74
CURVE2	TABLE
	Pt	T	Vf	Im	Vu	Sig	Ach	IERange	Over	Temp
	#	s	V vs. Ref.	A	V	V	V	#	bits	deg C
	3001	0.500333	4.98691E-001	2.04076E-004	0.00000E+000	5.00000E-001	-9.29272E-004	10	..........a	-327.74